"Time (s)","Linear Acceleration x (m/s^2)","Linear Acceleration y (m/s^2)","Linear Acceleration z (m/s^2)"
5.278487000E-3,0.000000000E0,0.000000000E0,0.000000000E0
1.021518800E-2,0.000000000E0,0.000000000E0,0.000000000E0
1.515188700E-2,0.000000000E0,0.000000000E0,0.000000000E0
2.008954600E-2,0.000000000E0,0.000000000E0,0.000000000E0
2.502716100E-2,0.000000000E0,0.000000000E0,0.000000000E0
2.996477600E-2,0.000000000E0,0.000000000E0,0.000000000E0
3.490153200E-2,0.000000000E0,0.000000000E0,0.000000000E0
3.983807700E-2,0.000000000E0,0.000000000E0,0.000000000E0
4.477462200E-2,0.000000000E0,0.000000000E0,0.000000000E0
4.971122000E-2,0.000000000E0,0.000000000E0,0.000000000E0
5.464785100E-2,0.000000000E0,0.000000000E0,0.000000000E0
5.958448200E-2,0.000000000E0,0.000000000E0,0.000000000E0
6.452136100E-2,5.310000181E-1,4.100000113E-2,-7.509999871E-1
6.945856600E-2,5.310000181E-1,4.100000113E-2,-7.509999871E-1
7.439577100E-2,5.310000181E-1,4.100000113E-2,-7.509999871E-1
7.936007700E-2,2.910000086E-1,3.200000152E-2,-3.759999871E-1
8.441925800E-2,2.910000086E-1,3.200000152E-2,-3.759999871E-1
8.939961200E-2,1.449999958E-1,1.400000043E-2,-1.319999993E-1
9.426763700E-2,1.449999958E-1,1.400000043E-2,-1.319999993E-1
9.913566200E-2,1.449999958E-1,1.400000043E-2,-1.319999993E-1
1.040181260E-1,2.099999934E-1,3.200000152E-2,-4.500000179E-2
1.089542070E-1,2.099999934E-1,3.200000152E-2,-4.500000179E-2
1.138902880E-1,2.099999934E-1,3.200000152E-2,-4.500000179E-2
1.188263660E-1,2.099999934E-1,3.200000152E-2,-4.500000179E-2
1.237626220E-1,1.420000046E-1,5.400000140E-2,-1.700000018E-1
1.286988670E-1,1.420000046E-1,5.400000140E-2,-1.700000018E-1
1.336351120E-1,1.420000046E-1,5.400000140E-2,-1.700000018E-1
1.385714510E-1,4.339999855E-1,6.100000069E-2,-3.000000026E-3
1.435077960E-1,4.339999855E-1,6.100000069E-2,-3.000000026E-3
1.484441410E-1,4.339999855E-1,6.100000069E-2,-3.000000026E-3
1.533803200E-1,4.670000076E-1,1.350000054E-1,9.700000286E-2
1.583164050E-1,4.670000076E-1,1.350000054E-1,9.700000286E-2
1.632524900E-1,4.670000076E-1,1.350000054E-1,9.700000286E-2
1.681892440E-1,3.219999969E-1,8.600000292E-2,-4.600000009E-2
1.731269050E-1,3.219999969E-1,8.600000292E-2,-4.600000009E-2
1.780645660E-1,3.219999969E-1,8.600000292E-2,-4.600000009E-2
1.830018980E-1,9.899999946E-2,-1.759999990E-1,1.099999994E-2
1.879379890E-1,9.899999946E-2,-1.759999990E-1,1.099999994E-2
1.928740800E-1,9.899999946E-2,-1.759999990E-1,1.099999994E-2
1.978101680E-1,9.899999946E-2,-1.759999990E-1,1.099999994E-2
2.027466300E-1,-8.000000380E-3,-1.949999928E-1,7.000000030E-2
2.076830710E-1,-8.000000380E-3,-1.949999928E-1,7.000000030E-2
2.126195120E-1,-8.000000380E-3,-1.949999928E-1,7.000000030E-2
2.175558850E-1,2.039999962E-1,-1.689999998E-1,2.220000029E-1
2.224922360E-1,2.039999962E-1,-1.689999998E-1,2.220000029E-1
2.274285870E-1,2.039999962E-1,-1.689999998E-1,2.220000029E-1
2.323658740E-1,4.029999971E-1,9.999999776E-3,2.520000041E-1
2.373037250E-1,4.029999971E-1,9.999999776E-3,2.520000041E-1
2.422415760E-1,4.029999971E-1,9.999999776E-3,2.520000041E-1
2.471789230E-1,3.330000043E-1,5.600000173E-2,1.979999989E-1
2.521156840E-1,3.330000043E-1,5.600000173E-2,1.979999989E-1
2.570524450E-1,3.330000043E-1,5.600000173E-2,1.979999989E-1
2.619890610E-1,2.619999945E-1,1.099999994E-1,1.990000010E-1
2.669252920E-1,2.619999945E-1,1.099999994E-1,1.990000010E-1
2.718615230E-1,2.619999945E-1,1.099999994E-1,1.990000010E-1
2.767977510E-1,2.619999945E-1,1.099999994E-1,1.990000010E-1
2.817359550E-1,2.419999987E-1,3.500000015E-2,-1.700000092E-2
2.866741400E-1,2.419999987E-1,3.500000015E-2,-1.700000092E-2
2.916123250E-1,2.419999987E-1,3.500000015E-2,-1.700000092E-2
2.965498430E-1,8.600000292E-2,5.000000075E-2,-3.959999979E-1
3.014872540E-1,8.600000292E-2,5.000000075E-2,-3.959999979E-1
3.064246650E-1,8.600000292E-2,5.000000075E-2,-3.959999979E-1
3.113618690E-1,5.200000107E-2,-1.499999966E-2,-4.070000052E-1
3.162989900E-1,5.200000107E-2,-1.499999966E-2,-4.070000052E-1
3.212361110E-1,5.200000107E-2,-1.499999966E-2,-4.070000052E-1
3.261735110E-1,-1.909999996E-1,9.999999776E-3,-1.199999973E-1
3.311113660E-1,-1.909999996E-1,9.999999776E-3,-1.199999973E-1
3.360492210E-1,-1.909999996E-1,9.999999776E-3,-1.199999973E-1
3.409871250E-1,-2.899999917E-1,-1.159999967E-1,-1.309999973E-1
3.459252960E-1,-2.899999917E-1,-1.159999967E-1,-1.309999973E-1
3.508634670E-1,-2.899999917E-1,-1.159999967E-1,-1.309999973E-1
3.558016350E-1,-2.899999917E-1,-1.159999967E-1,-1.309999973E-1
3.607394150E-1,-1.340000033E-1,-2.700000107E-1,-5.249999762E-1
3.656772060E-1,-1.340000033E-1,-2.700000107E-1,-5.249999762E-1
3.706149970E-1,-1.340000033E-1,-2.700000107E-1,-5.249999762E-1
3.755527660E-1,1.870000064E-1,-1.560000032E-1,-2.370000035E-1
3.804905570E-1,1.870000064E-1,-1.560000032E-1,-2.370000035E-1
3.854283480E-1,1.870000064E-1,-1.560000032E-1,-2.370000035E-1
3.903653140E-1,3.999999911E-2,-1.679999977E-1,-4.819999933E-1
3.953017890E-1,3.999999911E-2,-1.679999977E-1,-4.819999933E-1
4.002382640E-1,3.999999911E-2,-1.679999977E-1,-4.819999933E-1
4.051747890E-1,-1.070000008E-1,-2.300000042E-1,-4.429999888E-1
4.101114940E-1,-1.070000008E-1,-2.300000042E-1,-4.429999888E-1
4.150481990E-1,-1.070000008E-1,-2.300000042E-1,-4.429999888E-1
4.199849440E-1,-1.580000073E-1,-3.050000072E-1,4.199999943E-2
4.249218890E-1,-1.580000073E-1,-3.050000072E-1,4.199999943E-2
4.298588340E-1,-1.580000073E-1,-3.050000072E-1,4.199999943E-2
4.347957790E-1,-1.580000073E-1,-3.050000072E-1,4.199999943E-2
4.397344770E-1,2.360000014E-1,-1.979999989E-1,7.340000272E-1
4.446731220E-1,2.360000014E-1,-1.979999989E-1,7.340000272E-1
4.496117670E-1,2.360000014E-1,-1.979999989E-1,7.340000272E-1
4.545490220E-1,9.679999948E-1,-1.080000028E-1,1.641000032E0
4.594859530E-1,9.679999948E-1,-1.080000028E-1,1.641000032E0
4.644228840E-1,9.679999948E-1,-1.080000028E-1,1.641000032E0
4.693598950E-1,1.062999964E0,7.900000364E-2,1.444000006E0
4.742969100E-1,1.062999964E0,7.900000364E-2,1.444000006E0
4.792339250E-1,1.062999964E0,7.900000364E-2,1.444000006E0
4.841714680E-1,8.849999905E-1,2.259999961E-1,7.999999821E-2
4.891097290E-1,8.849999905E-1,2.259999961E-1,7.999999821E-2
4.940479900E-1,8.849999905E-1,2.259999961E-1,7.999999821E-2
4.989862400E-1,4.539999962E-1,4.359999895E-1,-6.140000224E-1
5.039244150E-1,4.539999962E-1,4.359999895E-1,-6.140000224E-1
5.088625900E-1,4.539999962E-1,4.359999895E-1,-6.140000224E-1
5.138007650E-1,4.539999962E-1,4.359999895E-1,-6.140000224E-1
5.187378190E-1,1.239999980E-1,2.639999986E-1,-7.210000157E-1
5.236748440E-1,1.239999980E-1,2.639999986E-1,-7.210000157E-1
5.286118690E-1,1.239999980E-1,2.639999986E-1,-7.210000157E-1
5.335493510E-1,1.519999951E-1,2.509999871E-1,-5.469999909E-1
5.384869220E-1,1.519999951E-1,2.509999871E-1,-5.469999909E-1
5.434244930E-1,1.519999951E-1,2.509999871E-1,-5.469999909E-1
5.483612410E-1,3.910000026E-1,3.569999933E-1,-2.669999897E-1
5.532974260E-1,3.910000026E-1,3.569999933E-1,-2.669999897E-1
5.582336110E-1,3.910000026E-1,3.569999933E-1,-2.669999897E-1
5.631702740E-1,6.330000162E-1,7.379999757E-1,-2.230000049E-1
5.681075490E-1,6.330000162E-1,7.379999757E-1,-2.230000049E-1
5.730448240E-1,6.330000162E-1,7.379999757E-1,-2.230000049E-1
5.779820980E-1,8.939999938E-1,2.730000019E-1,-1.800000072E-1
5.829192190E-1,8.939999938E-1,2.730000019E-1,-1.800000072E-1
5.878563400E-1,8.939999938E-1,2.730000019E-1,-1.800000072E-1
5.927934580E-1,8.939999938E-1,2.730000019E-1,-1.800000072E-1
5.977304660E-1,1.041000009E0,-3.000000026E-3,-5.000000075E-2
6.026674870E-1,1.041000009E0,-3.000000026E-3,-5.000000075E-2
6.076045080E-1,1.041000009E0,-3.000000026E-3,-5.000000075E-2
6.125411250E-1,1.099999994E-1,3.599999845E-2,4.110000134E-1
6.174776700E-1,1.099999994E-1,3.599999845E-2,4.110000134E-1
6.224142150E-1,1.099999994E-1,3.599999845E-2,4.110000134E-1
6.273502800E-1,-3.490000069E-1,-3.129999936E-1,-4.600000009E-2
6.322860550E-1,-3.490000069E-1,-3.129999936E-1,-4.600000009E-2
6.372218300E-1,-3.490000069E-1,-3.129999936E-1,-4.600000009E-2
6.421577320E-1,-5.130000114E-1,-3.310000002E-1,-1.350000054E-1
6.470938130E-1,-5.130000114E-1,-3.310000002E-1,-1.350000054E-1
6.520298940E-1,-5.130000114E-1,-3.310000002E-1,-1.350000054E-1
6.569660110E-1,-1.340000033E-1,-2.980000079E-1,-6.650000215E-1
6.619021360E-1,-1.340000033E-1,-2.980000079E-1,-6.650000215E-1
6.668382610E-1,-1.340000033E-1,-2.980000079E-1,-6.650000215E-1
6.717743860E-1,-1.340000033E-1,-2.980000079E-1,-6.650000215E-1
6.767102390E-1,4.399999976E-1,-8.699999750E-2,3.140000105E-1
6.816461340E-1,4.399999976E-1,-8.699999750E-2,3.140000105E-1
6.865820290E-1,4.399999976E-1,-8.699999750E-2,3.140000105E-1
6.915184980E-1,4.180000126E-1,-5.900000036E-2,6.899999976E-1
6.964551290E-1,4.180000126E-1,-5.900000036E-2,6.899999976E-1
7.013917600E-1,4.180000126E-1,-5.900000036E-2,6.899999976E-1
7.063286010E-1,2.370000035E-1,-4.300000146E-2,4.420000017E-1
7.112655920E-1,2.370000035E-1,-4.300000146E-2,4.420000017E-1
7.162025830E-1,2.370000035E-1,-4.300000146E-2,4.420000017E-1
7.211392610E-1,1.529999971E-1,-8.299999684E-2,3.140000105E-1
7.260755160E-1,1.529999971E-1,-8.299999684E-2,3.140000105E-1
7.310117710E-1,1.529999971E-1,-8.299999684E-2,3.140000105E-1
7.359482510E-1,-3.580000103E-1,-2.619999945E-1,-7.770000100E-1
7.408856720E-1,-3.580000103E-1,-2.619999945E-1,-7.770000100E-1
7.458230930E-1,-3.580000103E-1,-2.619999945E-1,-7.770000100E-1
7.507605110E-1,-3.580000103E-1,-2.619999945E-1,-7.770000100E-1
7.556967070E-1,-2.109999955E-1,-1.199999973E-1,-7.129999995E-1
7.606329420E-1,-2.109999955E-1,-1.199999973E-1,-7.129999995E-1
7.655691770E-1,-2.109999955E-1,-1.199999973E-1,-7.129999995E-1
7.705048130E-1,3.219999969E-1,-3.700000048E-2,1.819999963E-1
7.754402980E-1,3.219999969E-1,-3.700000048E-2,1.819999963E-1
7.803757830E-1,3.219999969E-1,-3.700000048E-2,1.819999963E-1
7.853114430E-1,2.500000000E-1,1.710000038E-1,5.899999738E-1
7.902472340E-1,2.500000000E-1,1.710000038E-1,5.899999738E-1
7.951830250E-1,2.500000000E-1,1.710000038E-1,5.899999738E-1
8.001188850E-1,5.370000005E-1,1.369999945E-1,6.970000267E-1
8.050548460E-1,5.370000005E-1,1.369999945E-1,6.970000267E-1
8.099908070E-1,5.370000005E-1,1.369999945E-1,6.970000267E-1
8.149266960E-1,-1.251999974E0,-1.850000024E-1,9.549999833E-1
8.198624670E-1,-1.251999974E0,-1.850000024E-1,9.549999833E-1
8.247982380E-1,-1.251999974E0,-1.850000024E-1,9.549999833E-1
8.297340060E-1,-1.251999974E0,-1.850000024E-1,9.549999833E-1
8.346703040E-1,-5.109999776E-1,-6.899999976E-1,1.300000027E-2
8.396066250E-1,-5.109999776E-1,-6.899999976E-1,1.300000027E-2
8.445429460E-1,-5.109999776E-1,-6.899999976E-1,1.300000027E-2
8.494798930E-1,-2.560000122E-1,-2.060000002E-1,-3.689999878E-1
8.544170040E-1,-2.560000122E-1,-2.060000002E-1,-3.689999878E-1
8.593541150E-1,-2.560000122E-1,-2.060000002E-1,-3.689999878E-1
8.642902290E-1,3.140000105E-1,-1.040000021E-1,-7.299999893E-2
8.692257440E-1,3.140000105E-1,-1.040000021E-1,-7.299999893E-2
8.741612590E-1,3.140000105E-1,-1.040000021E-1,-7.299999893E-2
8.790967560E-1,2.860000134E-1,-3.099999949E-2,2.319999933E-1
8.840322170E-1,2.860000134E-1,-3.099999949E-2,2.319999933E-1
8.889676780E-1,2.860000134E-1,-3.099999949E-2,2.319999933E-1
8.939034340E-1,6.000000052E-3,-6.700000167E-2,3.779999912E-1
8.988403490E-1,6.000000052E-3,-6.700000167E-2,3.779999912E-1
9.037772640E-1,6.000000052E-3,-6.700000167E-2,3.779999912E-1
9.087141790E-1,6.000000052E-3,-6.700000167E-2,3.779999912E-1
9.136505190E-1,1.309999973E-1,4.199999943E-2,4.950000048E-1
9.185868940E-1,1.309999973E-1,4.199999943E-2,4.950000048E-1
9.235232690E-1,1.309999973E-1,4.199999943E-2,4.950000048E-1
9.284592400E-1,2.529999912E-1,9.999999776E-3,3.980000019E-1
9.333951110E-1,2.529999912E-1,9.999999776E-3,3.980000019E-1
9.383309820E-1,2.529999912E-1,9.999999776E-3,3.980000019E-1
9.432674730E-1,5.609999895E-1,2.140000015E-1,2.860000134E-1
9.482043680E-1,5.609999895E-1,2.140000015E-1,2.860000134E-1
9.531412630E-1,5.609999895E-1,2.140000015E-1,2.860000134E-1
9.580780590E-1,-4.100000113E-2,1.630000025E-1,-3.000000119E-1
9.630148200E-1,-4.100000113E-2,1.630000025E-1,-3.000000119E-1
9.679515810E-1,-4.100000113E-2,1.630000025E-1,-3.000000119E-1
9.728883220E-1,7.199999690E-2,-3.999999911E-2,-3.000000119E-1
9.778249570E-1,7.199999690E-2,-3.999999911E-2,-3.000000119E-1
9.827615920E-1,7.199999690E-2,-3.999999911E-2,-3.000000119E-1
9.876982270E-1,7.199999690E-2,-3.999999911E-2,-3.000000119E-1
9.926339790E-1,1.599999964E-1,1.539999992E-1,5.400000140E-2
9.975697540E-1,1.599999964E-1,1.539999992E-1,5.400000140E-2
1.002505529E0,1.599999964E-1,1.539999992E-1,5.400000140E-2
1.007442698E0,4.140000045E-1,4.050000012E-1,2.189999968E-1
1.012380189E0,4.140000045E-1,4.050000012E-1,2.189999968E-1
1.017317680E0,4.140000045E-1,4.050000012E-1,2.189999968E-1
1.022254350E0,-6.100000069E-2,2.879999876E-1,3.869999945E-1
1.027190511E0,-6.100000069E-2,2.879999876E-1,3.869999945E-1
1.032126672E0,-6.100000069E-2,2.879999876E-1,3.869999945E-1
1.037062458E0,-2.489999980E-1,3.299999982E-2,1.979999989E-1
1.041997753E0,-2.489999980E-1,3.299999982E-2,1.979999989E-1
1.046933048E0,-2.489999980E-1,3.299999982E-2,1.979999989E-1
1.051868454E0,-2.890000045E-1,-1.070000008E-1,-1.519999951E-1
1.056804195E0,-2.890000045E-1,-1.070000008E-1,-1.519999951E-1
1.061739936E0,-2.890000045E-1,-1.070000008E-1,-1.519999951E-1
1.066675674E0,-2.890000045E-1,-1.070000008E-1,-1.519999951E-1
1.071611362E0,-1.710000038E-1,-6.700000167E-2,-2.569999993E-1
1.076547037E0,-1.710000038E-1,-6.700000167E-2,-2.569999993E-1
1.081482712E0,-1.710000038E-1,-6.700000167E-2,-2.569999993E-1
1.086418973E0,-2.919999957E-1,-1.689999998E-1,-1.099999994E-2
1.091355314E0,-2.919999957E-1,-1.689999998E-1,-1.099999994E-2
1.096291655E0,-2.919999957E-1,-1.689999998E-1,-1.099999994E-2
1.101227293E0,-1.599999964E-1,-1.609999985E-1,3.849999905E-1
1.106162494E0,-1.599999964E-1,-1.609999985E-1,3.849999905E-1
1.111097695E0,-1.599999964E-1,-1.609999985E-1,3.849999905E-1
1.116033083E0,-1.019999981E-1,-1.700000018E-1,2.759999931E-1
1.120968658E0,-1.019999981E-1,-1.700000018E-1,2.759999931E-1
1.125904233E0,-1.019999981E-1,-1.700000018E-1,2.759999931E-1
1.130839706E0,-4.699999839E-2,-1.110000014E-1,-5.400000140E-2
1.135774807E0,-4.699999839E-2,-1.110000014E-1,-5.400000140E-2
1.140709908E0,-4.699999839E-2,-1.110000014E-1,-5.400000140E-2
1.145645006E0,-4.699999839E-2,-1.110000014E-1,-5.400000140E-2
1.150580454E0,-9.000000358E-2,-1.400000006E-1,2.500000037E-2
1.155515835E0,-9.000000358E-2,-1.400000006E-1,2.500000037E-2
1.160451216E0,-9.000000358E-2,-1.400000006E-1,2.500000037E-2
1.165387480E0,-8.399999887E-2,3.000000026E-3,3.400000185E-2
1.170323915E0,-8.399999887E-2,3.000000026E-3,3.400000185E-2
1.175260350E0,-8.399999887E-2,3.000000026E-3,3.400000185E-2
1.180196283E0,-4.300000146E-2,9.899999946E-2,-6.300000101E-2
1.185131888E0,-4.300000146E-2,9.899999946E-2,-6.300000101E-2
1.190067493E0,-4.300000146E-2,9.899999946E-2,-6.300000101E-2
1.195003547E0,-2.400000021E-2,7.599999756E-2,-1.589999944E-1
1.199940178E0,-2.400000021E-2,7.599999756E-2,-1.589999944E-1
1.204876809E0,-2.400000021E-2,7.599999756E-2,-1.589999944E-1
1.209813511E0,-5.600000173E-2,6.800000370E-2,5.700000003E-2
1.214750336E0,-5.600000173E-2,6.800000370E-2,5.700000003E-2
1.219687161E0,-5.600000173E-2,6.800000370E-2,5.700000003E-2
1.224623986E0,-5.600000173E-2,6.800000370E-2,5.700000003E-2
1.229559613E0,-2.290000021E-1,-1.000000047E-3,2.610000074E-1
1.234495268E0,-2.290000021E-1,-1.000000047E-3,2.610000074E-1
1.239430923E0,-2.290000021E-1,-1.000000047E-3,2.610000074E-1
1.244366358E0,-2.210000008E-1,4.999999888E-3,7.199999690E-2
1.249301749E0,-2.210000008E-1,4.999999888E-3,7.199999690E-2
1.254237140E0,-2.210000008E-1,4.999999888E-3,7.199999690E-2
1.259172477E0,1.640000045E-1,1.780000031E-1,-1.439999938E-1
1.264107768E0,1.640000045E-1,1.780000031E-1,-1.439999938E-1
1.269043059E0,1.640000045E-1,1.780000031E-1,-1.439999938E-1
1.273978255E0,-1.340000033E-1,-3.200000152E-2,-1.560000032E-1
1.278913356E0,-1.340000033E-1,-3.200000152E-2,-1.560000032E-1
1.283848457E0,-1.340000033E-1,-3.200000152E-2,-1.560000032E-1
1.288783697E0,-4.899999872E-2,-3.700000048E-2,-1.959999949E-1
1.293719462E0,-4.899999872E-2,-3.700000048E-2,-1.959999949E-1
1.298655227E0,-4.899999872E-2,-3.700000048E-2,-1.959999949E-1
1.303590992E0,-4.899999872E-2,-3.700000048E-2,-1.959999949E-1
1.308527341E0,-9.600000083E-2,-5.400000140E-2,-2.090000063E-1
1.313463682E0,-9.600000083E-2,-5.400000140E-2,-2.090000063E-1
1.318400023E0,-9.600000083E-2,-5.400000140E-2,-2.090000063E-1
1.323336306E0,-2.999999933E-2,-1.129999980E-1,2.300000004E-2
1.328272581E0,-2.999999933E-2,-1.129999980E-1,2.300000004E-2
1.333208856E0,-2.999999933E-2,-1.129999980E-1,2.300000004E-2
1.338144464E0,-3.900000080E-2,-1.260000020E-1,2.949999869E-1
1.343079639E0,-3.900000080E-2,-1.260000020E-1,2.949999869E-1
1.348014814E0,-3.900000080E-2,-1.260000020E-1,2.949999869E-1
1.352950302E0,2.119999975E-1,-1.840000004E-1,3.880000114E-1
1.357886257E0,2.119999975E-1,-1.840000004E-1,3.880000114E-1
1.362822212E0,2.119999975E-1,-1.840000004E-1,3.880000114E-1
1.367758090E0,1.190000027E-1,-6.000000052E-3,2.899999917E-1
1.372693981E0,1.190000027E-1,-6.000000052E-3,2.899999917E-1
1.377629872E0,1.190000027E-1,-6.000000052E-3,2.899999917E-1
1.382565760E0,1.190000027E-1,-6.000000052E-3,2.899999917E-1
1.387502115E0,1.580000073E-1,-6.599999964E-2,-3.799999878E-2
1.392438456E0,1.580000073E-1,-6.599999964E-2,-3.799999878E-2
1.397374797E0,1.580000073E-1,-6.599999964E-2,-3.799999878E-2
1.402312122E0,6.499999762E-2,1.010000035E-1,-1.000000047E-3
1.407249687E0,6.499999762E-2,1.010000035E-1,-1.000000047E-3
1.412187252E0,6.499999762E-2,1.010000035E-1,-1.000000047E-3
1.417124292E0,-7.699999958E-2,1.759999990E-1,-1.250000000E-1
1.422061027E0,-7.699999958E-2,1.759999990E-1,-1.250000000E-1
1.426997762E0,-7.699999958E-2,1.759999990E-1,-1.250000000E-1
1.431934062E0,4.000000190E-3,1.819999963E-1,1.180000007E-1
1.436869863E0,4.000000190E-3,1.819999963E-1,1.180000007E-1
1.441805664E0,4.000000190E-3,1.819999963E-1,1.180000007E-1
1.446741513E0,-1.080000028E-1,-6.300000101E-2,2.820000052E-1
1.451677568E0,-1.080000028E-1,-6.300000101E-2,2.820000052E-1
1.456613623E0,-1.080000028E-1,-6.300000101E-2,2.820000052E-1
1.461549678E0,-1.080000028E-1,-6.300000101E-2,2.820000052E-1
1.466485849E0,-2.220000029E-1,-2.999999933E-2,-4.300000146E-2
1.471422000E0,-2.220000029E-1,-2.999999933E-2,-4.300000146E-2
1.476358151E0,-2.220000029E-1,-2.999999933E-2,-4.300000146E-2
1.481294143E0,-1.700000092E-2,-5.099999905E-2,-9.600000083E-2
1.486230084E0,-1.700000092E-2,-5.099999905E-2,-9.600000083E-2
1.491166025E0,-1.700000092E-2,-5.099999905E-2,-9.600000083E-2
1.496101568E0,-3.999999911E-2,1.089999974E-1,-1.220000014E-1
1.501036889E0,-3.999999911E-2,1.089999974E-1,-1.220000014E-1
1.505972210E0,-3.999999911E-2,1.089999974E-1,-1.220000014E-1
1.510907994E0,-1.400000043E-2,1.449999958E-1,-3.999999911E-2
1.515844405E0,-1.400000043E-2,1.449999958E-1,-3.999999911E-2
1.520780816E0,-1.400000043E-2,1.449999958E-1,-3.999999911E-2
1.525717269E0,-8.900000155E-2,1.010000035E-1,9.600000083E-2
1.530653900E0,-8.900000155E-2,1.010000035E-1,9.600000083E-2
1.535590531E0,-8.900000155E-2,1.010000035E-1,9.600000083E-2
1.540527159E0,-8.900000155E-2,1.010000035E-1,9.600000083E-2
1.545463855E0,-1.330000013E-1,-1.759999990E-1,1.600000076E-2
1.550400510E0,-1.330000013E-1,-1.759999990E-1,1.600000076E-2
1.555337165E0,-1.330000013E-1,-1.759999990E-1,1.600000076E-2
1.560274787E0,-4.199999943E-2,7.800000161E-2,-3.700000048E-2
1.565212642E0,-4.199999943E-2,7.800000161E-2,-3.700000048E-2
1.570150497E0,-4.199999943E-2,7.800000161E-2,-3.700000048E-2
1.575087780E0,-3.799999878E-2,1.309999973E-1,-3.700000048E-2
1.580024711E0,-3.799999878E-2,1.309999973E-1,-3.700000048E-2
1.584961642E0,-3.799999878E-2,1.309999973E-1,-3.700000048E-2
1.589898189E0,-4.300000146E-2,7.299999893E-2,-3.599999845E-2
1.594834280E0,-4.300000146E-2,7.299999893E-2,-3.599999845E-2
1.599770371E0,-4.300000146E-2,7.299999893E-2,-3.599999845E-2
1.604706483E0,-6.599999964E-2,2.349999994E-1,1.000000015E-1
1.609642634E0,-6.599999964E-2,2.349999994E-1,1.000000015E-1
1.614578785E0,-6.599999964E-2,2.349999994E-1,1.000000015E-1
1.619514933E0,-6.599999964E-2,2.349999994E-1,1.000000015E-1
1.624450448E0,4.899999872E-2,-7.100000232E-2,5.999999866E-2
1.629385933E0,4.899999872E-2,-7.100000232E-2,5.999999866E-2
1.634321418E0,4.899999872E-2,-7.100000232E-2,5.999999866E-2
1.639258264E0,3.799999878E-2,-7.500000298E-2,-3.299999982E-2
1.644195445E0,3.799999878E-2,-7.500000298E-2,-3.299999982E-2
1.649132626E0,3.799999878E-2,-7.500000298E-2,-3.299999982E-2
1.654068877E0,-5.299999937E-2,1.400000043E-2,7.599999756E-2
1.659004558E0,-5.299999937E-2,1.400000043E-2,7.599999756E-2
1.663940239E0,-5.299999937E-2,1.400000043E-2,7.599999756E-2
1.668876075E0,-8.999999613E-3,6.599999964E-2,1.439999938E-1
1.673812130E0,-8.999999613E-3,6.599999964E-2,1.439999938E-1
1.678748185E0,-8.999999613E-3,6.599999964E-2,1.439999938E-1
1.683684082E0,3.099999949E-2,2.500000037E-2,2.199999988E-2
1.688619207E0,3.099999949E-2,2.500000037E-2,2.199999988E-2
1.693554332E0,3.099999949E-2,2.500000037E-2,2.199999988E-2
1.698489457E0,3.099999949E-2,2.500000037E-2,2.199999988E-2
1.703424859E0,-8.000000380E-3,-9.600000083E-2,-8.600000292E-2
1.708360214E0,-8.000000380E-3,-9.600000083E-2,-8.600000292E-2
1.713295569E0,-8.000000380E-3,-9.600000083E-2,-8.600000292E-2
1.718231203E0,4.500000179E-2,-5.499999970E-2,-5.900000036E-2
1.723166898E0,4.500000179E-2,-5.499999970E-2,-5.900000036E-2
1.728102593E0,4.500000179E-2,-5.499999970E-2,-5.900000036E-2
1.733038379E0,5.900000036E-2,-3.799999878E-2,-7.299999893E-2
1.737974220E0,5.900000036E-2,-3.799999878E-2,-7.299999893E-2
1.742910061E0,5.900000036E-2,-3.799999878E-2,-7.299999893E-2
1.747845989E0,5.900000036E-2,-6.300000101E-2,1.999999955E-2
1.752782044E0,5.900000036E-2,-6.300000101E-2,1.999999955E-2
1.757718099E0,5.900000036E-2,-6.300000101E-2,1.999999955E-2
1.762654044E0,-1.049999967E-1,-1.369999945E-1,1.899999939E-2
1.767589625E0,-1.049999967E-1,-1.369999945E-1,1.899999939E-2
1.772525206E0,-1.049999967E-1,-1.369999945E-1,1.899999939E-2
1.777460784E0,-1.049999967E-1,-1.369999945E-1,1.899999939E-2
1.782396697E0,-1.599999964E-1,-8.500000089E-2,9.799999744E-2
1.787332582E0,-1.599999964E-1,-8.500000089E-2,9.799999744E-2
1.792268467E0,-1.599999964E-1,-8.500000089E-2,9.799999744E-2
1.797204789E0,-6.499999762E-2,8.299999684E-2,1.650000066E-1
1.802141130E0,-6.499999762E-2,8.299999684E-2,1.650000066E-1
1.807077471E0,-6.499999762E-2,8.299999684E-2,1.650000066E-1
1.812013677E0,8.000000380E-3,1.449999958E-1,-1.209999993E-1
1.816949908E0,8.000000380E-3,1.449999958E-1,-1.209999993E-1
1.821886139E0,8.000000380E-3,1.449999958E-1,-1.209999993E-1
1.826822273E0,-1.400000043E-2,1.469999999E-1,-2.989999950E-1
1.831758334E0,-1.400000043E-2,1.469999999E-1,-2.989999950E-1
1.836694395E0,-1.400000043E-2,1.469999999E-1,-2.989999950E-1
1.841630224E0,3.400000185E-2,3.230000138E-1,-3.999999911E-2
1.846565159E0,3.400000185E-2,3.230000138E-1,-3.999999911E-2
1.851500094E0,3.400000185E-2,3.230000138E-1,-3.999999911E-2
1.856435029E0,3.400000185E-2,3.230000138E-1,-3.999999911E-2
1.861370706E0,7.900000364E-2,8.600000292E-2,1.700000092E-2
1.866306351E0,7.900000364E-2,8.600000292E-2,1.700000092E-2
1.871241996E0,7.900000364E-2,8.600000292E-2,1.700000092E-2
1.876178544E0,1.480000019E-1,1.260000020E-1,1.969999969E-1
1.881115269E0,1.480000019E-1,1.260000020E-1,1.969999969E-1
1.886051994E0,1.480000019E-1,1.260000020E-1,1.969999969E-1
1.890989066E0,1.099999994E-2,-3.200000152E-2,3.109999895E-1
1.895926371E0,1.099999994E-2,-3.200000152E-2,3.109999895E-1
1.900863676E0,1.099999994E-2,-3.200000152E-2,3.109999895E-1
1.905800751E0,-1.129999980E-1,-4.100000113E-2,2.590000033E-1
1.910737512E0,-1.129999980E-1,-4.100000113E-2,2.590000033E-1
1.915674273E0,-1.129999980E-1,-4.100000113E-2,2.590000033E-1
1.920610800E0,-4.800000042E-2,-2.300000004E-2,1.790000051E-1
1.925546671E0,-4.800000042E-2,-2.300000004E-2,1.790000051E-1
1.930482542E0,-4.800000042E-2,-2.300000004E-2,1.790000051E-1
1.935418410E0,-4.800000042E-2,-2.300000004E-2,1.790000051E-1
1.940354934E0,1.799999923E-2,4.100000113E-2,1.250000000E-1
1.945291445E0,1.799999923E-2,4.100000113E-2,1.250000000E-1
1.950227956E0,1.799999923E-2,4.100000113E-2,1.250000000E-1
1.955163628E0,7.100000232E-2,-6.499999762E-2,-2.400000021E-2
1.960099139E0,7.100000232E-2,-6.499999762E-2,-2.400000021E-2
1.965034650E0,7.100000232E-2,-6.499999762E-2,-2.400000021E-2
1.969970705E0,1.379999965E-1,-8.299999684E-2,1.230000034E-1
1.974907116E0,1.379999965E-1,-8.299999684E-2,1.230000034E-1
1.979843527E0,1.379999965E-1,-8.299999684E-2,1.230000034E-1
1.984780217E0,1.920000017E-1,-6.400000304E-2,1.220000014E-1
1.989717258E0,1.920000017E-1,-6.400000304E-2,1.220000014E-1
1.994654299E0,1.920000017E-1,-6.400000304E-2,1.220000014E-1
1.999591219E0,9.000000358E-2,-9.300000221E-2,-1.600000076E-2
2.004527740E0,9.000000358E-2,-9.300000221E-2,-1.600000076E-2
2.009464261E0,9.000000358E-2,-9.300000221E-2,-1.600000076E-2
2.014400779E0,9.000000358E-2,-9.300000221E-2,-1.600000076E-2
2.019336765E0,9.799999744E-2,-7.199999690E-2,2.269999981E-1
2.024272756E0,9.799999744E-2,-7.199999690E-2,2.269999981E-1
2.029208747E0,9.799999744E-2,-7.199999690E-2,2.269999981E-1
2.034144187E0,5.499999970E-2,2.099999972E-2,3.059999943E-1
2.039079552E0,5.499999970E-2,2.099999972E-2,3.059999943E-1
2.044014917E0,5.499999970E-2,2.099999972E-2,3.059999943E-1
2.048950790E0,-1.140000001E-1,-5.400000140E-2,1.899999939E-2
2.053887061E0,-1.140000001E-1,-5.400000140E-2,1.899999939E-2
2.058823332E0,-1.140000001E-1,-5.400000140E-2,1.899999939E-2
2.063759449E0,1.099999994E-2,-4.399999976E-2,5.700000003E-2
2.068695320E0,1.099999994E-2,-4.399999976E-2,5.700000003E-2
2.073631191E0,1.099999994E-2,-4.399999976E-2,5.700000003E-2
2.078566871E0,1.529999971E-1,-2.199999988E-2,-2.500000037E-2
2.083501952E0,1.529999971E-1,-2.199999988E-2,-2.500000037E-2
2.088437033E0,1.529999971E-1,-2.199999988E-2,-2.500000037E-2
2.093372111E0,1.529999971E-1,-2.199999988E-2,-2.500000037E-2
2.098307475E0,0.000000000E0,3.500000015E-2,5.499999970E-2
2.103242880E0,0.000000000E0,3.500000015E-2,5.499999970E-2
2.108178285E0,0.000000000E0,3.500000015E-2,5.499999970E-2
2.113113289E0,-4.999999888E-3,0.000000000E0,5.400000140E-2
2.118048270E0,-4.999999888E-3,0.000000000E0,5.400000140E-2
2.122983251E0,-4.999999888E-3,0.000000000E0,5.400000140E-2
2.127919242E0,-7.000000216E-3,2.899999917E-2,6.700000167E-2
2.132855867E0,-7.000000216E-3,2.899999917E-2,6.700000167E-2
2.137792492E0,-7.000000216E-3,2.899999917E-2,6.700000167E-2
2.142729516E0,4.199999943E-2,-8.000000380E-3,1.620000005E-1
2.147667131E0,4.199999943E-2,-8.000000380E-3,1.620000005E-1
2.152604746E0,4.199999943E-2,-8.000000380E-3,1.620000005E-1
2.157542129E0,-8.299999684E-2,3.400000185E-2,1.879999936E-1
2.162478770E0,-8.299999684E-2,3.400000185E-2,1.879999936E-1
2.167415411E0,-8.299999684E-2,3.400000185E-2,1.879999936E-1
2.172352049E0,-8.299999684E-2,3.400000185E-2,1.879999936E-1
2.177287524E0,2.300000004E-2,8.000000380E-3,5.200000107E-2
2.182223015E0,2.300000004E-2,8.000000380E-3,5.200000107E-2
2.187158506E0,2.300000004E-2,8.000000380E-3,5.200000107E-2
2.192094677E0,2.199999988E-2,-3.000000026E-3,-7.000000030E-2
2.197030992E0,2.199999988E-2,-3.000000026E-3,-7.000000030E-2
2.201967307E0,2.199999988E-2,-3.000000026E-3,-7.000000030E-2
2.206903093E0,3.500000015E-2,6.499999762E-2,-7.000000030E-2
2.211838604E0,3.500000015E-2,6.499999762E-2,-7.000000030E-2
2.216774115E0,3.500000015E-2,6.499999762E-2,-7.000000030E-2
2.221709700E0,-4.999999888E-3,5.200000107E-2,-1.600000076E-2
2.226645345E0,-4.999999888E-3,5.200000107E-2,-1.600000076E-2
2.231580990E0,-4.999999888E-3,5.200000107E-2,-1.600000076E-2
2.236516600E0,2.199999988E-2,6.499999762E-2,-2.899999917E-2
2.241452085E0,2.199999988E-2,6.499999762E-2,-2.899999917E-2
2.246387570E0,2.199999988E-2,6.499999762E-2,-2.899999917E-2
2.251323055E0,2.199999988E-2,6.499999762E-2,-2.899999917E-2
2.256258423E0,-8.600000292E-2,1.000000015E-1,-2.460000068E-1
2.261193808E0,-8.600000292E-2,1.000000015E-1,-2.460000068E-1
2.266129193E0,-8.600000292E-2,1.000000015E-1,-2.460000068E-1
2.271064024E0,8.999999613E-3,-1.700000092E-2,4.100000113E-2
2.275998765E0,8.999999613E-3,-1.700000092E-2,4.100000113E-2
2.280933506E0,8.999999613E-3,-1.700000092E-2,4.100000113E-2
2.285868643E0,-9.799999744E-2,-1.150000021E-1,4.090000093E-1
2.290804024E0,-9.799999744E-2,-1.150000021E-1,4.090000093E-1
2.295739405E0,-9.799999744E-2,-1.150000021E-1,4.090000093E-1
2.300674515E0,-1.000000047E-3,-7.800000161E-2,3.560000062E-1
2.305609230E0,-1.000000047E-3,-7.800000161E-2,3.560000062E-1
2.310543945E0,-1.000000047E-3,-7.800000161E-2,3.560000062E-1
2.315478668E0,3.999999911E-2,-9.200000018E-2,-2.500000037E-2
2.320413473E0,3.999999911E-2,-9.200000018E-2,-2.500000037E-2
2.325348278E0,3.999999911E-2,-9.200000018E-2,-2.500000037E-2
2.330283083E0,3.999999911E-2,-9.200000018E-2,-2.500000037E-2
2.335219459E0,1.239999980E-1,-8.900000155E-2,1.000000047E-3
2.340155774E0,1.239999980E-1,-8.900000155E-2,1.000000047E-3
2.345092089E0,1.239999980E-1,-8.900000155E-2,1.000000047E-3
2.350027342E0,-2.500000037E-2,-4.500000179E-2,1.400000043E-2
2.354962353E0,-2.500000037E-2,-4.500000179E-2,1.400000043E-2
2.359897364E0,-2.500000037E-2,-4.500000179E-2,1.400000043E-2
2.364831574E0,-7.900000364E-2,1.000000015E-1,-1.640000045E-1
2.369765259E0,-7.900000364E-2,1.000000015E-1,-1.640000045E-1
2.374698944E0,-7.900000364E-2,1.000000015E-1,-1.640000045E-1
2.379633099E0,-1.469999999E-1,1.309999973E-1,-3.009999990E-1
2.384567900E0,-1.469999999E-1,1.309999973E-1,-3.009999990E-1
2.389502701E0,-1.469999999E-1,1.309999973E-1,-3.009999990E-1
2.394437919E0,1.600000076E-2,-1.799999923E-2,-6.010000110E-1
2.399374424E0,1.600000076E-2,-1.799999923E-2,-6.010000110E-1
2.404310929E0,1.600000076E-2,-1.799999923E-2,-6.010000110E-1
2.409247434E0,1.600000076E-2,-1.799999923E-2,-6.010000110E-1
2.414182259E0,-8.999999613E-3,-1.190000027E-1,2.169999927E-1
2.419117074E0,-8.999999613E-3,-1.190000027E-1,2.169999927E-1
2.424051889E0,-8.999999613E-3,-1.190000027E-1,2.169999927E-1
2.428986956E0,-1.439999938E-1,-8.100000024E-2,2.579999864E-1
2.433922051E0,-1.439999938E-1,-8.100000024E-2,2.579999864E-1
2.438857146E0,-1.439999938E-1,-8.100000024E-2,2.579999864E-1
2.443792171E0,1.099999994E-2,-1.700000092E-2,5.499999970E-2
2.448727176E0,1.099999994E-2,-1.700000092E-2,5.499999970E-2
2.453662181E0,1.099999994E-2,-1.700000092E-2,5.499999970E-2
2.458597627E0,4.300000146E-2,-4.500000179E-2,-1.209999993E-1
2.463533608E0,4.300000146E-2,-4.500000179E-2,-1.209999993E-1
2.468469589E0,4.300000146E-2,-4.500000179E-2,-1.209999993E-1
2.473405445E0,3.000000026E-3,2.300000004E-2,-1.209999993E-1
2.478340930E0,3.000000026E-3,2.300000004E-2,-1.209999993E-1
2.483276415E0,3.000000026E-3,2.300000004E-2,-1.209999993E-1
2.488211900E0,3.000000026E-3,2.300000004E-2,-1.209999993E-1
2.493146721E0,-3.500000015E-2,2.600000054E-2,-1.360000074E-1
2.498081606E0,-3.500000015E-2,2.600000054E-2,-1.360000074E-1
2.503016491E0,-3.500000015E-2,2.600000054E-2,-1.360000074E-1
2.507952092E0,-2.099999972E-2,4.100000113E-2,-8.100000024E-2
2.512887857E0,-2.099999972E-2,4.100000113E-2,-8.100000024E-2
2.517823622E0,-2.099999972E-2,4.100000113E-2,-8.100000024E-2
2.522759279E0,-4.699999839E-2,-5.299999937E-2,1.080000028E-1
2.527694884E0,-4.699999839E-2,-5.299999937E-2,1.080000028E-1
2.532630489E0,-4.699999839E-2,-5.299999937E-2,1.080000028E-1
2.537566030E0,-1.899999939E-2,-7.999999821E-2,1.899999976E-1
2.542501491E0,-1.899999939E-2,-7.999999821E-2,1.899999976E-1
2.547436952E0,-1.899999939E-2,-7.999999821E-2,1.899999976E-1
2.552372579E0,-4.500000179E-2,-2.500000037E-2,1.350000054E-1
2.557308730E0,-4.500000179E-2,-2.500000037E-2,1.350000054E-1
2.562244881E0,-4.500000179E-2,-2.500000037E-2,1.350000054E-1
2.567181029E0,-4.500000179E-2,-2.500000037E-2,1.350000054E-1
2.572117887E0,-6.899999827E-2,3.000000026E-3,1.620000005E-1
2.577054708E0,-6.899999827E-2,3.000000026E-3,1.620000005E-1
2.581991529E0,-6.899999827E-2,3.000000026E-3,1.620000005E-1
2.586927166E0,0.000000000E0,5.999999866E-2,1.749999970E-1
2.591862557E0,0.000000000E0,5.999999866E-2,1.749999970E-1
2.596797948E0,0.000000000E0,5.999999866E-2,1.749999970E-1
2.601733029E0,-3.500000015E-2,-2.800000086E-2,5.099999905E-2
2.606667940E0,-3.500000015E-2,-2.800000086E-2,5.099999905E-2
2.611602851E0,-3.500000015E-2,-2.800000086E-2,5.099999905E-2
2.616537858E0,6.199999899E-2,6.899999827E-2,3.700000048E-2
2.621473049E0,6.199999899E-2,6.899999827E-2,3.700000048E-2
2.626408240E0,6.199999899E-2,6.899999827E-2,3.700000048E-2
2.631343477E0,3.799999878E-2,3.200000152E-2,-8.500000089E-2
2.636279052E0,3.799999878E-2,3.200000152E-2,-8.500000089E-2
2.641214627E0,3.799999878E-2,3.200000152E-2,-8.500000089E-2
2.646150202E0,3.799999878E-2,3.200000152E-2,-8.500000089E-2
2.651085659E0,5.299999937E-2,-7.000000216E-3,-4.500000179E-2
2.656021144E0,5.299999937E-2,-7.000000216E-3,-4.500000179E-2
2.660956629E0,5.299999937E-2,-7.000000216E-3,-4.500000179E-2
2.665892789E0,-2.500000037E-2,4.999999888E-3,-4.500000179E-2
2.670829060E0,-2.500000037E-2,4.999999888E-3,-4.500000179E-2
2.675765331E0,-2.500000037E-2,4.999999888E-3,-4.500000179E-2
2.680701449E0,-1.099999994E-2,3.000000026E-3,2.300000004E-2
2.685637484E0,-1.099999994E-2,3.000000026E-3,2.300000004E-2
2.690573519E0,-1.099999994E-2,3.000000026E-3,2.300000004E-2
2.695509577E0,-9.300000221E-2,-2.500000037E-2,5.000000075E-2
2.700445658E0,-9.300000221E-2,-2.500000037E-2,5.000000075E-2
2.705381739E0,-9.300000221E-2,-2.500000037E-2,5.000000075E-2
2.710317480E0,-2.400000021E-2,-9.499999881E-2,1.049999967E-1
2.715252105E0,-2.400000021E-2,-9.499999881E-2,1.049999967E-1
2.720186730E0,-2.400000021E-2,-9.499999881E-2,1.049999967E-1
2.725121355E0,-2.400000021E-2,-9.499999881E-2,1.049999967E-1
2.730057214E0,4.399999976E-2,-9.399999678E-2,1.190000027E-1
2.734993075E0,4.399999976E-2,-9.399999678E-2,1.190000027E-1
2.739928936E0,4.399999976E-2,-9.399999678E-2,1.190000027E-1
2.744862992E0,-5.000000075E-2,-6.100000069E-2,8.000000380E-3
2.749796657E0,-5.000000075E-2,-6.100000069E-2,8.000000380E-3
2.754730322E0,-5.000000075E-2,-6.100000069E-2,8.000000380E-3
2.759664691E0,4.600000009E-2,2.800000086E-2,-1.829999983E-1
2.764599466E0,4.600000009E-2,2.800000086E-2,-1.829999983E-1
2.769534241E0,4.600000009E-2,2.800000086E-2,-1.829999983E-1
2.774469481E0,8.799999952E-2,1.260000020E-1,-1.430000067E-1
2.779405342E0,8.799999952E-2,1.260000020E-1,-1.430000067E-1
2.784341203E0,8.799999952E-2,1.260000020E-1,-1.430000067E-1
2.789276761E0,-3.400000185E-2,3.299999982E-2,6.000000052E-3
2.794211122E0,-3.400000185E-2,3.299999982E-2,6.000000052E-3
2.799145483E0,-3.400000185E-2,3.299999982E-2,6.000000052E-3
2.804079841E0,-3.400000185E-2,3.299999982E-2,6.000000052E-3
2.809015510E0,1.999999955E-2,-4.699999839E-2,3.050000072E-1
2.813951151E0,1.999999955E-2,-4.699999839E-2,3.050000072E-1
2.818886792E0,1.999999955E-2,-4.699999839E-2,3.050000072E-1
2.823821667E0,6.000000052E-3,-1.129999980E-1,3.050000072E-1
2.828756408E0,6.000000052E-3,-1.129999980E-1,3.050000072E-1
2.833691149E0,6.000000052E-3,-1.129999980E-1,3.050000072E-1
2.838626164E0,1.899999939E-2,-4.399999976E-2,2.360000014E-1
2.843561355E0,1.899999939E-2,-4.399999976E-2,2.360000014E-1
2.848496546E0,1.899999939E-2,-4.399999976E-2,2.360000014E-1
2.853431437E0,1.799999923E-2,-1.300000027E-2,1.809999943E-1
2.858365868E0,1.799999923E-2,-1.300000027E-2,1.809999943E-1
2.863300299E0,1.799999923E-2,-1.300000027E-2,1.809999943E-1
2.868234888E0,1.120000035E-1,-1.899999939E-2,-1.059999987E-1
2.873170149E0,1.120000035E-1,-1.899999939E-2,-1.059999987E-1
2.878105410E0,1.120000035E-1,-1.899999939E-2,-1.059999987E-1
2.883040668E0,1.120000035E-1,-1.899999939E-2,-1.059999987E-1
2.887976791E0,1.239999980E-1,9.999999776E-3,-2.560000122E-1
2.892912842E0,1.239999980E-1,9.999999776E-3,-2.560000122E-1
2.897848893E0,1.239999980E-1,9.999999776E-3,-2.560000122E-1
2.902784752E0,-3.000000026E-3,2.800000086E-2,-2.160000056E-1
2.907720527E0,-3.000000026E-3,2.800000086E-2,-2.160000056E-1
2.912656302E0,-3.000000026E-3,2.800000086E-2,-2.160000056E-1
2.917592297E0,-4.600000009E-2,4.199999943E-2,-1.350000054E-1
2.922528472E0,-4.600000009E-2,4.199999943E-2,-1.350000054E-1
2.927464647E0,-4.600000009E-2,4.199999943E-2,-1.350000054E-1
2.932400018E0,-5.099999905E-2,-3.900000080E-2,1.400000043E-2
2.937334429E0,-5.099999905E-2,-3.900000080E-2,1.400000043E-2
2.942268840E0,-5.099999905E-2,-3.900000080E-2,1.400000043E-2
2.947203516E0,4.199999943E-2,-2.700000070E-2,-1.099999994E-2
2.952139181E0,4.199999943E-2,-2.700000070E-2,-1.099999994E-2
2.957074846E0,4.199999943E-2,-2.700000070E-2,-1.099999994E-2
2.962010511E0,4.199999943E-2,-2.700000070E-2,-1.099999994E-2
2.966946481E0,-5.499999970E-2,-2.999999933E-2,1.239999980E-1
2.971882442E0,-5.499999970E-2,-2.999999933E-2,1.239999980E-1
2.976818403E0,-5.499999970E-2,-2.999999933E-2,1.239999980E-1
2.981753607E0,-2.700000070E-2,-5.700000003E-2,2.060000002E-1
2.986688638E0,-2.700000070E-2,-5.700000003E-2,2.060000002E-1
2.991623669E0,-2.700000070E-2,-5.700000003E-2,2.060000002E-1
2.996558403E0,5.499999970E-2,2.400000021E-2,5.600000173E-2
3.001493024E0,5.499999970E-2,2.400000021E-2,5.600000173E-2
3.006427645E0,5.499999970E-2,2.400000021E-2,5.600000173E-2
3.011362665E0,4.300000146E-2,1.300000027E-2,-1.480000019E-1
3.016298236E0,4.300000146E-2,1.300000027E-2,-1.480000019E-1
3.021233807E0,4.300000146E-2,1.300000027E-2,-1.480000019E-1
3.026169320E0,1.600000076E-2,6.899999827E-2,-1.209999993E-1
3.031104805E0,1.600000076E-2,6.899999827E-2,-1.209999993E-1
3.036040290E0,1.600000076E-2,6.899999827E-2,-1.209999993E-1
3.040975775E0,1.600000076E-2,6.899999827E-2,-1.209999993E-1
3.045911522E0,-2.300000004E-2,-4.899999872E-2,1.770000011E-1
3.050847263E0,-2.300000004E-2,-4.899999872E-2,1.770000011E-1
3.055783004E0,-2.300000004E-2,-4.899999872E-2,1.770000011E-1
3.060718454E0,-9.999999776E-3,-6.000000052E-3,8.100000024E-2
3.065653845E0,-9.999999776E-3,-6.000000052E-3,8.100000024E-2
3.070589236E0,-9.999999776E-3,-6.000000052E-3,8.100000024E-2
3.075523794E0,-9.999999776E-3,6.100000069E-2,1.080000028E-1
3.080457865E0,-9.999999776E-3,6.100000069E-2,1.080000028E-1
3.085391936E0,-9.999999776E-3,6.100000069E-2,1.080000028E-1
3.090327133E0,-5.099999905E-2,2.199999988E-2,8.100000024E-2
3.095263924E0,-5.099999905E-2,2.199999988E-2,8.100000024E-2
3.100200715E0,-5.099999905E-2,2.199999988E-2,8.100000024E-2
3.105136939E0,7.199999690E-2,8.999999613E-3,3.999999911E-2
3.110071184E0,7.199999690E-2,8.999999613E-3,3.999999911E-2
3.115005429E0,7.199999690E-2,8.999999613E-3,3.999999911E-2
3.119939674E0,7.199999690E-2,8.999999613E-3,3.999999911E-2
3.124875107E0,4.000000190E-3,1.040000021E-1,-2.039999962E-1
3.129810508E0,4.000000190E-3,1.040000021E-1,-2.039999962E-1
3.134745909E0,4.000000190E-3,1.040000021E-1,-2.039999962E-1
3.139681176E0,3.200000152E-2,6.199999899E-2,-1.220000014E-1
3.144616467E0,3.200000152E-2,6.199999899E-2,-1.220000014E-1
3.149551758E0,3.200000152E-2,6.199999899E-2,-1.220000014E-1
3.154486939E0,-4.800000042E-2,2.000000095E-3,-5.299999937E-2
3.159422110E0,-4.800000042E-2,2.000000095E-3,-5.299999937E-2
3.164357281E0,-4.800000042E-2,2.000000095E-3,-5.299999937E-2
3.169292552E0,-6.000000052E-3,-5.600000173E-2,1.790000051E-1
3.174227933E0,-6.000000052E-3,-5.600000173E-2,1.790000051E-1
3.179163314E0,-6.000000052E-3,-5.600000173E-2,1.790000051E-1
3.184098622E0,6.000000052E-3,-3.099999949E-2,4.379999936E-1
3.189033747E0,6.000000052E-3,-3.099999949E-2,4.379999936E-1
3.193968872E0,6.000000052E-3,-3.099999949E-2,4.379999936E-1
3.198903997E0,6.000000052E-3,-3.099999949E-2,4.379999936E-1
3.203839094E0,7.000000216E-3,2.099999972E-2,1.790000051E-1
3.208774195E0,7.000000216E-3,2.099999972E-2,1.790000051E-1
3.213709296E0,7.000000216E-3,2.099999972E-2,1.790000051E-1
3.218643941E0,3.400000185E-2,8.900000155E-2,-5.099999905E-2
3.223578442E0,3.400000185E-2,8.900000155E-2,-5.099999905E-2
3.228512943E0,3.400000185E-2,8.900000155E-2,-5.099999905E-2
3.233447568E0,3.500000015E-2,2.199999988E-2,-1.059999987E-1
3.238382279E0,3.500000015E-2,2.199999988E-2,-1.059999987E-1
3.243316990E0,3.500000015E-2,2.199999988E-2,-1.059999987E-1
3.248251773E0,4.800000042E-2,1.040000021E-1,-7.900000364E-2
3.253186578E0,4.800000042E-2,1.040000021E-1,-7.900000364E-2
3.258121383E0,4.800000042E-2,1.040000021E-1,-7.900000364E-2
3.263056259E0,-3.400000185E-2,8.000000380E-3,2.000000095E-3
3.267991354E0,-3.400000185E-2,8.000000380E-3,2.000000095E-3
3.272926449E0,-3.400000185E-2,8.000000380E-3,2.000000095E-3
3.277861544E0,-3.400000185E-2,8.000000380E-3,2.000000095E-3
3.282796765E0,-3.500000015E-2,4.999999888E-3,3.000000026E-3
3.287731956E0,-3.500000015E-2,4.999999888E-3,3.000000026E-3
3.292667147E0,-3.500000015E-2,4.999999888E-3,3.000000026E-3
3.297602084E0,3.099999949E-2,-2.300000004E-2,-7.699999958E-2
3.302536989E0,3.099999949E-2,-2.300000004E-2,-7.699999958E-2
3.307471894E0,3.099999949E-2,-2.300000004E-2,-7.699999958E-2
3.312406798E0,5.600000173E-2,-1.400000043E-2,4.500000179E-2
3.317341723E0,5.600000173E-2,-1.400000043E-2,4.500000179E-2
3.322276648E0,5.600000173E-2,-1.400000043E-2,4.500000179E-2
3.327211508E0,1.000000047E-3,-1.499999966E-2,1.000000015E-1
3.332146199E0,1.000000047E-3,-1.499999966E-2,1.000000015E-1
3.337080890E0,1.000000047E-3,-1.499999966E-2,1.000000015E-1
3.342015541E0,2.700000070E-2,8.999999613E-3,4.999999888E-3
3.346950062E0,2.700000070E-2,8.999999613E-3,4.999999888E-3
3.351884583E0,2.700000070E-2,8.999999613E-3,4.999999888E-3
3.356819101E0,2.700000070E-2,8.999999613E-3,4.999999888E-3
3.361755639E0,-2.000000095E-3,2.199999988E-2,8.699999750E-2
3.366692170E0,-2.000000095E-3,2.199999988E-2,8.699999750E-2
3.371628701E0,-2.000000095E-3,2.199999988E-2,8.699999750E-2
3.376563359E0,6.400000304E-2,5.000000075E-2,1.280000061E-1
3.381497600E0,6.400000304E-2,5.000000075E-2,1.280000061E-1
3.386431841E0,6.400000304E-2,5.000000075E-2,1.280000061E-1
3.391366214E0,7.400000095E-2,4.899999872E-2,-1.299999952E-1
3.396300659E0,7.400000095E-2,4.899999872E-2,-1.299999952E-1
3.401235104E0,7.400000095E-2,4.899999872E-2,-1.299999952E-1
3.406169973E0,1.700000092E-2,8.000000380E-3,-4.800000042E-2
3.411105448E0,1.700000092E-2,8.000000380E-3,-4.800000042E-2
3.416040923E0,1.700000092E-2,8.000000380E-3,-4.800000042E-2
3.420976040E0,0.000000000E0,1.999999955E-2,3.600000143E-1
3.425909775E0,0.000000000E0,1.999999955E-2,3.600000143E-1
3.430843510E0,0.000000000E0,1.999999955E-2,3.600000143E-1
3.435777245E0,0.000000000E0,1.999999955E-2,3.600000143E-1
3.440713105E0,-7.000000030E-2,-6.000000052E-3,2.919999957E-1
3.445648890E0,-7.000000030E-2,-6.000000052E-3,2.919999957E-1
3.450584675E0,-7.000000030E-2,-6.000000052E-3,2.919999957E-1
3.455520197E0,2.199999988E-2,6.100000069E-2,8.699999750E-2
3.460455682E0,2.199999988E-2,6.100000069E-2,8.699999750E-2
3.465391167E0,2.199999988E-2,6.100000069E-2,8.699999750E-2
3.470325727E0,5.999999866E-2,8.600000292E-2,-1.700000018E-1
3.475259752E0,5.999999866E-2,8.600000292E-2,-1.700000018E-1
3.480193777E0,5.999999866E-2,8.600000292E-2,-1.700000018E-1
3.485127934E0,-3.500000015E-2,3.000000026E-3,-1.700000018E-1
3.490062259E0,-3.500000015E-2,3.000000026E-3,-1.700000018E-1
3.494996584E0,-3.500000015E-2,3.000000026E-3,-1.700000018E-1
3.499930736E0,-1.049999967E-1,2.600000054E-2,7.000000216E-3
3.504864107E0,-1.049999967E-1,2.600000054E-2,7.000000216E-3
3.509797478E0,-1.049999967E-1,2.600000054E-2,7.000000216E-3
3.514730846E0,-1.049999967E-1,2.600000054E-2,7.000000216E-3
3.519664819E0,3.000000026E-3,7.800000161E-2,8.000000380E-3
3.524598754E0,3.000000026E-3,7.800000161E-2,8.000000380E-3
3.529532689E0,3.000000026E-3,7.800000161E-2,8.000000380E-3
3.534465996E0,7.100000232E-2,-9.999999776E-3,-1.260000020E-1
3.539399201E0,7.100000232E-2,-9.999999776E-3,-1.260000020E-1
3.544332406E0,7.100000232E-2,-9.999999776E-3,-1.260000020E-1
3.549266302E0,9.799999744E-2,-7.199999690E-2,-1.499999966E-2
3.554200623E0,9.799999744E-2,-7.199999690E-2,-1.499999966E-2
3.559134944E0,9.799999744E-2,-7.199999690E-2,-1.499999966E-2
3.564069149E0,4.399999976E-2,-8.699999750E-2,2.160000056E-1
3.569003190E0,4.399999976E-2,-8.699999750E-2,2.160000056E-1
3.573937231E0,4.399999976E-2,-8.699999750E-2,2.160000056E-1
3.578871432E0,1.499999966E-2,-4.500000179E-2,2.700000107E-1
3.583806403E0,1.499999966E-2,-4.500000179E-2,2.700000107E-1
3.588741374E0,1.499999966E-2,-4.500000179E-2,2.700000107E-1
3.593676342E0,1.499999966E-2,-4.500000179E-2,2.700000107E-1
3.598611669E0,0.000000000E0,9.200000018E-2,-7.000000030E-2
3.603546980E0,0.000000000E0,9.200000018E-2,-7.000000030E-2
3.608482291E0,0.000000000E0,9.200000018E-2,-7.000000030E-2
3.613416660E0,6.100000069E-2,8.200000226E-2,-1.120000035E-1
3.618350801E0,6.100000069E-2,8.200000226E-2,-1.120000035E-1
3.623284942E0,6.100000069E-2,8.200000226E-2,-1.120000035E-1
3.628218842E0,1.120000035E-1,-6.499999762E-2,-4.399999976E-2
3.633152597E0,1.120000035E-1,-6.499999762E-2,-4.399999976E-2
3.638086352E0,1.120000035E-1,-6.499999762E-2,-4.399999976E-2
3.643020470E0,1.979999989E-1,1.799999923E-2,-1.700000092E-2
3.647955055E0,1.979999989E-1,1.799999923E-2,-1.700000092E-2
3.652889640E0,1.979999989E-1,1.799999923E-2,-1.700000092E-2
3.657889445E0,3.500000015E-2,4.399999976E-2,-1.809999943E-1
3.663130966E0,3.500000015E-2,4.399999976E-2,-1.809999943E-1
3.668372487E0,3.500000015E-2,4.399999976E-2,-1.809999943E-1
3.673614005E0,3.500000015E-2,4.399999976E-2,-1.809999943E-1
3.678545843E0,-2.500000037E-2,-2.400000021E-2,9.099999815E-2
3.683481534E0,-2.500000037E-2,-2.400000021E-2,9.099999815E-2
3.688417225E0,-2.500000037E-2,-2.400000021E-2,9.099999815E-2
3.693351098E0,-3.599999845E-2,-9.399999678E-2,2.280000001E-1
3.698284573E0,-3.599999845E-2,-9.399999678E-2,2.280000001E-1
3.703218048E0,-3.599999845E-2,-9.399999678E-2,2.280000001E-1
3.708151955E0,1.300000027E-2,-3.999999911E-2,1.599999964E-1
3.713086206E0,1.300000027E-2,-3.999999911E-2,1.599999964E-1
3.718020457E0,1.300000027E-2,-3.999999911E-2,1.599999964E-1
3.722954866E0,-1.420000046E-1,1.089999974E-1,5.000000075E-2
3.727889477E0,-1.420000046E-1,1.089999974E-1,5.000000075E-2
3.732824088E0,-1.420000046E-1,1.089999974E-1,5.000000075E-2
3.737758574E0,6.199999899E-2,8.200000226E-2,-2.070000023E-1
3.742692689E0,6.199999899E-2,8.200000226E-2,-2.070000023E-1
3.747626804E0,6.199999899E-2,8.200000226E-2,-2.070000023E-1
3.752560919E0,6.199999899E-2,8.200000226E-2,-2.070000023E-1
3.757495925E0,-4.399999976E-2,5.499999970E-2,-1.120000035E-1
3.762430920E0,-4.399999976E-2,5.499999970E-2,-1.120000035E-1
3.767365915E0,-4.399999976E-2,5.499999970E-2,-1.120000035E-1
3.772300127E0,3.999999911E-2,6.599999964E-2,1.049999967E-1
3.777234198E0,3.999999911E-2,6.599999964E-2,1.049999967E-1
3.782168269E0,3.999999911E-2,6.599999964E-2,1.049999967E-1
3.787102736E0,-5.200000107E-2,-9.899999946E-2,2.560000122E-1
3.792037517E0,-5.200000107E-2,-9.899999946E-2,2.560000122E-1
3.796972298E0,-5.200000107E-2,-9.899999946E-2,2.560000122E-1
3.801906997E0,-1.309999973E-1,2.999999933E-2,1.350000054E-1
3.806841618E0,-1.309999973E-1,2.999999933E-2,1.350000054E-1
3.811776239E0,-1.309999973E-1,2.999999933E-2,1.350000054E-1
3.816711045E0,-2.109999955E-1,6.800000370E-2,-6.800000370E-2
3.821646450E0,-2.109999955E-1,6.800000370E-2,-6.800000370E-2
3.826581855E0,-2.109999955E-1,6.800000370E-2,-6.800000370E-2
3.831517260E0,-2.109999955E-1,6.800000370E-2,-6.800000370E-2
3.836452639E0,-1.300000027E-2,5.000000075E-2,-6.700000167E-2
3.841388024E0,-1.300000027E-2,5.000000075E-2,-6.700000167E-2
3.846323409E0,-1.300000027E-2,5.000000075E-2,-6.700000167E-2
3.851258411E0,6.100000069E-2,1.999999955E-2,-1.889999956E-1
3.856193296E0,6.100000069E-2,1.999999955E-2,-1.889999956E-1
3.861128181E0,6.100000069E-2,1.999999955E-2,-1.889999956E-1
3.866062813E0,2.400000021E-2,4.999999888E-3,-1.200000010E-2
3.870997338E0,2.400000021E-2,4.999999888E-3,-1.200000010E-2
3.875931863E0,2.400000021E-2,4.999999888E-3,-1.200000010E-2
3.880866465E0,4.199999943E-2,-2.400000021E-2,1.239999980E-1
3.885801100E0,4.199999943E-2,-2.400000021E-2,1.239999980E-1
3.890735735E0,4.199999943E-2,-2.400000021E-2,1.239999980E-1
3.895670202E0,1.600000076E-2,-1.200000010E-2,5.700000003E-2
3.900604127E0,1.600000076E-2,-1.200000010E-2,5.700000003E-2
3.905538052E0,1.600000076E-2,-1.200000010E-2,5.700000003E-2
3.910471977E0,1.600000076E-2,-1.200000010E-2,5.700000003E-2
3.915406491E0,-2.400000021E-2,3.799999878E-2,-9.200000018E-2
3.920341006E0,-2.400000021E-2,3.799999878E-2,-9.200000018E-2
3.925275521E0,-2.400000021E-2,3.799999878E-2,-9.200000018E-2
3.930209633E0,-1.099999994E-2,8.000000380E-3,1.700000092E-2
3.935143678E0,-1.099999994E-2,8.000000380E-3,1.700000092E-2
3.940077723E0,-1.099999994E-2,8.000000380E-3,1.700000092E-2
3.945012277E0,-1.200000010E-2,-1.799999923E-2,1.400000006E-1
3.949947102E0,-1.200000010E-2,-1.799999923E-2,1.400000006E-1
3.954881927E0,-1.200000010E-2,-1.799999923E-2,1.400000006E-1
3.959817202E0,-1.200000010E-2,-3.200000152E-2,1.940000057E-1
3.964753063E0,-1.200000010E-2,-3.200000152E-2,1.940000057E-1
3.969688924E0,-1.200000010E-2,-3.200000152E-2,1.940000057E-1
3.974624737E0,2.899999917E-2,6.199999899E-2,-6.400000304E-2
3.979560388E0,2.899999917E-2,6.199999899E-2,-6.400000304E-2
3.984496039E0,2.899999917E-2,6.199999899E-2,-6.400000304E-2
3.989431687E0,2.899999917E-2,6.199999899E-2,-6.400000304E-2
3.994368286E0,2.899999917E-2,-1.799999923E-2,-1.860000044E-1
3.999304841E0,2.899999917E-2,-1.799999923E-2,-1.860000044E-1
4.004241396E0,2.899999917E-2,-1.799999923E-2,-1.860000044E-1
4.009177734E0,-9.999999776E-3,-3.099999949E-2,-1.180000007E-1
4.014114059E0,-9.999999776E-3,-3.099999949E-2,-1.180000007E-1
4.019050384E0,-9.999999776E-3,-3.099999949E-2,-1.180000007E-1
4.023986310E0,-9.200000018E-2,-1.600000076E-2,1.600000076E-2
4.028922011E0,-9.200000018E-2,-1.600000076E-2,1.600000076E-2
4.033857712E0,-9.200000018E-2,-1.600000076E-2,1.600000076E-2
4.038793040E0,-1.040000021E-1,-2.899999917E-2,1.600000076E-2
4.043727831E0,-1.040000021E-1,-2.899999917E-2,1.600000076E-2
4.048662622E0,-1.040000021E-1,-2.899999917E-2,1.600000076E-2
4.053597340E0,1.899999939E-2,1.099999994E-2,-3.700000048E-2
4.058531765E0,1.899999939E-2,1.099999994E-2,-3.700000048E-2
4.063466190E0,1.899999939E-2,1.099999994E-2,-3.700000048E-2
4.068400615E0,1.899999939E-2,1.099999994E-2,-3.700000048E-2
4.073336058E0,9.999999776E-3,1.099999994E-2,-2.140000015E-1
4.078271459E0,9.999999776E-3,1.099999994E-2,-2.140000015E-1
4.083206860E0,9.999999776E-3,1.099999994E-2,-2.140000015E-1
4.088140691E0,2.700000070E-2,5.200000107E-2,-7.800000161E-2
4.093074142E0,2.700000070E-2,5.200000107E-2,-7.800000161E-2
4.098007593E0,2.700000070E-2,5.200000107E-2,-7.800000161E-2
4.102940531E0,5.700000003E-2,9.999999776E-3,1.389999986E-1
4.107873156E0,5.700000003E-2,9.999999776E-3,1.389999986E-1
4.112805781E0,5.700000003E-2,9.999999776E-3,1.389999986E-1
4.117738673E0,3.099999949E-2,9.999999776E-3,3.709999919E-1
4.122671844E0,3.099999949E-2,9.999999776E-3,3.709999919E-1
4.127605015E0,3.099999949E-2,9.999999776E-3,3.709999919E-1
4.132538229E0,4.399999976E-2,6.300000101E-2,2.759999931E-1
4.137471664E0,4.399999976E-2,6.300000101E-2,2.759999931E-1
4.142405099E0,4.399999976E-2,6.300000101E-2,2.759999931E-1
4.147338534E0,4.399999976E-2,6.300000101E-2,2.759999931E-1
4.152273556E0,6.899999827E-2,7.699999958E-2,1.120000035E-1
4.157208547E0,6.899999827E-2,7.699999958E-2,1.120000035E-1
4.162143538E0,6.899999827E-2,7.699999958E-2,1.120000035E-1
4.167078121E0,1.200000010E-2,3.700000048E-2,2.999999933E-2
4.172012646E0,1.200000010E-2,3.700000048E-2,2.999999933E-2
4.176947171E0,1.200000010E-2,3.700000048E-2,2.999999933E-2
4.181881513E0,-3.299999982E-2,8.999999613E-3,-7.800000161E-2
4.186815748E0,-3.299999982E-2,8.999999613E-3,-7.800000161E-2
4.191749983E0,-3.299999982E-2,8.999999613E-3,-7.800000161E-2
4.196684911E0,-4.800000042E-2,-3.200000152E-2,1.700000092E-2
4.201620792E0,-4.800000042E-2,-3.200000152E-2,1.700000092E-2
4.206556673E0,-4.800000042E-2,-3.200000152E-2,1.700000092E-2
4.211492360E0,-9.999999776E-3,7.000000216E-3,-6.400000304E-2
4.216427365E0,-9.999999776E-3,7.000000216E-3,-6.400000304E-2
4.221362370E0,-9.999999776E-3,7.000000216E-3,-6.400000304E-2
4.226297375E0,-9.999999776E-3,7.000000216E-3,-6.400000304E-2
4.231231710E0,-2.500000037E-2,-6.400000304E-2,-1.309999973E-1
4.236166041E0,-2.500000037E-2,-6.400000304E-2,-1.309999973E-1
4.241100372E0,-2.500000037E-2,-6.400000304E-2,-1.309999973E-1
4.246034963E0,-6.599999964E-2,-1.080000028E-1,1.140000001E-1
4.250969648E0,-6.599999964E-2,-1.080000028E-1,1.140000001E-1
4.255904333E0,-6.599999964E-2,-1.080000028E-1,1.140000001E-1
4.260839314E0,-5.099999905E-2,-9.399999678E-2,2.639999986E-1
4.265774405E0,-5.099999905E-2,-9.399999678E-2,2.639999986E-1
4.270709496E0,-5.099999905E-2,-9.399999678E-2,2.639999986E-1
4.275644544E0,1.799999923E-2,3.000000026E-3,1.000000015E-1
4.280579549E0,1.799999923E-2,3.000000026E-3,1.000000015E-1
4.285514554E0,1.799999923E-2,3.000000026E-3,1.000000015E-1
4.290449532E0,3.400000185E-2,5.099999905E-2,-6.400000304E-2
4.295384463E0,3.400000185E-2,5.099999905E-2,-6.400000304E-2
4.300319394E0,3.400000185E-2,5.099999905E-2,-6.400000304E-2
4.305254322E0,3.400000185E-2,5.099999905E-2,-6.400000304E-2
4.310188132E0,-4.500000179E-2,1.080000028E-1,-1.870000064E-1
4.315121963E0,-4.500000179E-2,1.080000028E-1,-1.870000064E-1
4.320055794E0,-4.500000179E-2,1.080000028E-1,-1.870000064E-1
4.325520885E0,2.300000004E-2,4.199999943E-2,2.899999917E-2
4.330842224E0,-1.499999966E-2,4.999999888E-3,5.600000173E-2
4.335801795E0,-1.499999966E-2,4.999999888E-3,5.600000173E-2
4.340761366E0,-1.499999966E-2,4.999999888E-3,5.600000173E-2
4.345715584E0,-1.400000043E-2,1.799999923E-2,2.189999968E-1
4.350650229E0,-1.400000043E-2,1.799999923E-2,2.189999968E-1
4.355584874E0,-1.400000043E-2,1.799999923E-2,2.189999968E-1
4.360519519E0,-1.400000043E-2,1.799999923E-2,2.189999968E-1
4.365454372E0,1.300000027E-2,-2.400000021E-2,2.199999988E-1
4.370389247E0,1.300000027E-2,-2.400000021E-2,2.199999988E-1
4.375324122E0,1.300000027E-2,-2.400000021E-2,2.199999988E-1
4.380259413E0,1.209999993E-1,-2.400000021E-2,-2.290000021E-1
4.385194818E0,1.209999993E-1,-2.400000021E-2,-2.290000021E-1
4.390130223E0,1.209999993E-1,-2.400000021E-2,-2.290000021E-1
4.395065176E0,-1.600000076E-2,2.899999917E-2,-2.969999909E-1
4.399999797E0,-1.600000076E-2,2.899999917E-2,-2.969999909E-1
4.404934418E0,-1.600000076E-2,2.899999917E-2,-2.969999909E-1
4.409869214E0,-1.000000015E-1,1.600000076E-2,-7.900000364E-2
4.414804185E0,-1.000000015E-1,1.600000076E-2,-7.900000364E-2
4.419739156E0,-1.000000015E-1,1.600000076E-2,-7.900000364E-2
4.424674261E0,-7.299999893E-2,-6.400000304E-2,1.920000017E-1
4.429609762E0,-7.299999893E-2,-6.400000304E-2,1.920000017E-1
4.434545263E0,-7.299999893E-2,-6.400000304E-2,1.920000017E-1
4.439480761E0,-7.299999893E-2,-6.400000304E-2,1.920000017E-1
4.444415572E0,7.000000216E-3,-5.099999905E-2,1.509999931E-1
4.449350387E0,7.000000216E-3,-5.099999905E-2,1.509999931E-1
4.454285202E0,7.000000216E-3,-5.099999905E-2,1.509999931E-1
4.459219472E0,6.199999899E-2,-7.800000161E-2,-1.099999994E-2
4.464153587E0,6.199999899E-2,-7.800000161E-2,-1.099999994E-2
4.469087702E0,6.199999899E-2,-7.800000161E-2,-1.099999994E-2
4.474022280E0,7.599999756E-2,4.999999888E-3,-1.209999993E-1
4.478957181E0,7.599999756E-2,4.999999888E-3,-1.209999993E-1
4.483892082E0,7.599999756E-2,4.999999888E-3,-1.209999993E-1
4.488826884E0,-4.999999888E-3,4.800000042E-2,-1.209999993E-1
4.493761529E0,-4.999999888E-3,4.800000042E-2,-1.209999993E-1
4.498696174E0,-4.999999888E-3,4.800000042E-2,-1.209999993E-1
4.503630988E0,-7.299999893E-2,8.999999613E-3,9.600000083E-2
4.508566439E0,-7.299999893E-2,8.999999613E-3,9.600000083E-2
4.513501890E0,-7.299999893E-2,8.999999613E-3,9.600000083E-2
4.518437338E0,-7.299999893E-2,8.999999613E-3,9.600000083E-2
4.523373355E0,-6.000000052E-3,-5.700000003E-2,2.310000062E-1
4.528309336E0,-6.000000052E-3,-5.700000003E-2,2.310000062E-1
4.533245317E0,-6.000000052E-3,-5.700000003E-2,2.310000062E-1
4.538181436E0,-4.699999839E-2,7.900000364E-2,1.220000014E-1
4.543117561E0,-4.699999839E-2,7.900000364E-2,1.220000014E-1
4.548053686E0,-4.699999839E-2,7.900000364E-2,1.220000014E-1
4.552988764E0,-1.000000015E-1,2.600000054E-2,-9.499999881E-2
4.557923219E0,-1.000000015E-1,2.600000054E-2,-9.499999881E-2
4.562857674E0,-1.000000015E-1,2.600000054E-2,-9.499999881E-2
4.567792358E0,-4.000000190E-3,3.900000080E-2,-1.770000011E-1
4.572727139E0,-4.000000190E-3,3.900000080E-2,-1.770000011E-1
4.577661920E0,-4.000000190E-3,3.900000080E-2,-1.770000011E-1
4.582596676E0,-6.800000370E-2,3.900000080E-2,-8.100000024E-2
4.587531417E0,-6.800000370E-2,3.900000080E-2,-8.100000024E-2
4.592466158E0,-6.800000370E-2,3.900000080E-2,-8.100000024E-2
4.597400896E0,-6.800000370E-2,3.900000080E-2,-8.100000024E-2
4.602336268E0,-6.000000052E-3,4.899999872E-2,-1.350000054E-1
4.607271623E0,-6.000000052E-3,4.899999872E-2,-1.350000054E-1
4.612206978E0,-6.000000052E-3,4.899999872E-2,-1.350000054E-1
4.617141871E0,5.099999905E-2,1.899999939E-2,-1.070000008E-1
4.622076682E0,5.099999905E-2,1.899999939E-2,-1.070000008E-1
4.627011493E0,5.099999905E-2,1.899999939E-2,-1.070000008E-1
4.631946665E0,0.000000000E0,-2.800000086E-2,-6.499999762E-2
4.636882070E0,0.000000000E0,-2.800000086E-2,-6.499999762E-2
4.641817475E0,0.000000000E0,-2.800000086E-2,-6.499999762E-2
4.646752587E0,4.300000146E-2,-4.000000190E-3,-2.300000004E-2
4.651687302E0,4.300000146E-2,-4.000000190E-3,-2.300000004E-2
4.656622017E0,4.300000146E-2,-4.000000190E-3,-2.300000004E-2
4.661556833E0,4.000000190E-3,-4.899999872E-2,7.199999690E-2
4.666492214E0,4.000000190E-3,-4.899999872E-2,7.199999690E-2
4.671427595E0,4.000000190E-3,-4.899999872E-2,7.199999690E-2
4.676362973E0,4.000000190E-3,-4.899999872E-2,7.199999690E-2
4.681297095E0,-1.040000021E-1,-2.400000021E-2,1.410000026E-1
4.686231236E0,-1.040000021E-1,-2.400000021E-2,1.410000026E-1
4.691165377E0,-1.040000021E-1,-2.400000021E-2,1.410000026E-1
4.696101227E0,-1.030000001E-1,3.000000026E-3,1.539999992E-1
4.701037468E0,-1.030000001E-1,3.000000026E-3,1.539999992E-1
4.705973709E0,-1.030000001E-1,3.000000026E-3,1.539999992E-1
4.710909099E0,-4.500000179E-2,3.299999982E-2,1.700000092E-2
4.715843890E0,-4.500000179E-2,3.299999982E-2,1.700000092E-2
4.720778681E0,-4.500000179E-2,3.299999982E-2,1.700000092E-2
4.725713647E0,-2.000000095E-3,4.899999872E-2,-6.400000304E-2
4.730648838E0,-2.000000095E-3,4.899999872E-2,-6.400000304E-2
4.735584029E0,-2.000000095E-3,4.899999872E-2,-6.400000304E-2
4.740519039E0,1.499999966E-2,1.099999994E-2,5.700000003E-2
4.745453590E0,1.499999966E-2,1.099999994E-2,5.700000003E-2
4.750388141E0,1.499999966E-2,1.099999994E-2,5.700000003E-2
4.755322689E0,1.499999966E-2,1.099999994E-2,5.700000003E-2
4.760256792E0,-9.000000358E-2,0.000000000E0,9.799999744E-2
4.765190933E0,-9.000000358E-2,0.000000000E0,9.799999744E-2
4.770125074E0,-9.000000358E-2,0.000000000E0,9.799999744E-2
4.775060446E0,-5.700000003E-2,1.300000027E-2,-6.499999762E-2
4.779996087E0,-5.700000003E-2,1.300000027E-2,-6.499999762E-2
4.784931728E0,-5.700000003E-2,1.300000027E-2,-6.499999762E-2
4.789866910E0,-1.099999994E-2,-6.800000370E-2,2.999999933E-2
4.794801845E0,-1.099999994E-2,-6.800000370E-2,2.999999933E-2
4.799736780E0,-1.099999994E-2,-6.800000370E-2,2.999999933E-2
4.804671977E0,-8.999999613E-3,-8.100000024E-2,9.799999744E-2
4.809607548E0,-8.999999613E-3,-8.100000024E-2,9.799999744E-2
4.814543119E0,-8.999999613E-3,-8.100000024E-2,9.799999744E-2
4.819478316E0,4.699999839E-2,-5.299999937E-2,-2.400000021E-2
4.824412171E0,4.699999839E-2,-5.299999937E-2,-2.400000021E-2
4.829346026E0,4.699999839E-2,-5.299999937E-2,-2.400000021E-2
4.834279881E0,4.699999839E-2,-5.299999937E-2,-2.400000021E-2
4.839214153E0,8.000000380E-3,2.800000086E-2,-1.330000013E-1
4.844148378E0,8.000000380E-3,2.800000086E-2,-1.330000013E-1
4.849082603E0,8.000000380E-3,2.800000086E-2,-1.330000013E-1
4.854018007E0,-5.700000003E-2,3.200000152E-2,5.499999970E-2
4.858953648E0,-5.700000003E-2,3.200000152E-2,5.499999970E-2
4.863889289E0,-5.700000003E-2,3.200000152E-2,5.499999970E-2
4.868824012E0,-4.300000146E-2,1.999999955E-2,1.369999945E-1
4.873758177E0,-4.300000146E-2,1.999999955E-2,1.369999945E-1
4.878692342E0,-4.300000146E-2,1.999999955E-2,1.369999945E-1
4.883627168E0,1.200000010E-2,3.500000015E-2,1.089999974E-1
4.888562903E0,1.200000010E-2,3.500000015E-2,1.089999974E-1
4.893498638E0,1.200000010E-2,3.500000015E-2,1.089999974E-1
4.898434019E0,6.700000167E-2,3.599999845E-2,-2.600000054E-2
4.903368070E0,6.700000167E-2,3.599999845E-2,-2.600000054E-2
4.908302121E0,6.700000167E-2,3.599999845E-2,-2.600000054E-2
4.913236169E0,6.700000167E-2,3.599999845E-2,-2.600000054E-2
4.918172298E0,-3.999999911E-2,-4.500000179E-2,5.499999970E-2
4.923108443E0,-3.999999911E-2,-4.500000179E-2,5.499999970E-2
4.928044588E0,-3.999999911E-2,-4.500000179E-2,5.499999970E-2
4.932979613E0,-6.700000167E-2,-9.799999744E-2,1.089999974E-1
4.937914428E0,-6.700000167E-2,-9.799999744E-2,1.089999974E-1
4.942849243E0,-6.700000167E-2,-9.799999744E-2,1.089999974E-1
4.947783844E0,-1.209999993E-1,-1.499999966E-2,5.400000140E-2
4.952718295E0,-1.209999993E-1,-1.499999966E-2,5.400000140E-2
4.957652746E0,-1.209999993E-1,-1.499999966E-2,5.400000140E-2
4.962587060E0,4.199999943E-2,1.080000028E-1,-4.100000113E-2
4.967521175E0,4.199999943E-2,1.080000028E-1,-4.100000113E-2
4.972455290E0,4.199999943E-2,1.080000028E-1,-4.100000113E-2
4.977389533E0,4.300000146E-2,2.800000086E-2,-1.230000034E-1
4.982324334E0,4.300000146E-2,2.800000086E-2,-1.230000034E-1
4.987259135E0,4.300000146E-2,2.800000086E-2,-1.230000034E-1
4.992193933E0,4.300000146E-2,2.800000086E-2,-1.230000034E-1
4.997129628E0,-3.700000048E-2,1.000000047E-3,1.300000027E-2
5.002065293E0,-3.700000048E-2,1.000000047E-3,1.300000027E-2
5.007000958E0,-3.700000048E-2,1.000000047E-3,1.300000027E-2
5.011936488E0,-6.199999899E-2,-5.299999937E-2,2.310000062E-1
5.016871999E0,-6.199999899E-2,-5.299999937E-2,2.310000062E-1
5.021807510E0,-6.199999899E-2,-5.299999937E-2,2.310000062E-1
5.026742752E0,-8.900000155E-2,-1.350000054E-1,2.169999927E-1
5.031677827E0,-8.900000155E-2,-1.350000054E-1,2.169999927E-1
5.036612902E0,-8.900000155E-2,-1.350000054E-1,2.169999927E-1
5.041547742E0,1.840000004E-1,-2.500000037E-2,1.209999993E-1
5.046482363E0,1.840000004E-1,-2.500000037E-2,1.209999993E-1
5.051416984E0,1.840000004E-1,-2.500000037E-2,1.209999993E-1
5.056351860E0,1.999999955E-2,-1.099999994E-2,-1.500000060E-1
5.061287741E0,1.999999955E-2,-1.099999994E-2,-1.500000060E-1
5.066223622E0,1.999999955E-2,-1.099999994E-2,-1.500000060E-1
5.071159500E0,1.999999955E-2,-1.099999994E-2,-1.500000060E-1
5.076095537E0,3.400000185E-2,-3.500000015E-2,-1.239999980E-1
5.081031568E0,3.400000185E-2,-3.500000015E-2,-1.239999980E-1
5.085967599E0,3.400000185E-2,-3.500000015E-2,-1.239999980E-1
5.090902837E0,7.000000030E-2,-5.600000173E-2,-1.600000076E-2
5.095837868E0,7.000000030E-2,-5.600000173E-2,-1.600000076E-2
5.100772899E0,7.000000030E-2,-5.600000173E-2,-1.600000076E-2
5.105707533E0,1.049999967E-1,6.800000370E-2,2.300000004E-2
5.110641938E0,1.049999967E-1,6.800000370E-2,2.300000004E-2
5.115576343E0,1.049999967E-1,6.800000370E-2,2.300000004E-2
5.120510851E0,-5.200000107E-2,5.700000003E-2,-3.099999949E-2
5.125445392E0,-5.200000107E-2,5.700000003E-2,-3.099999949E-2
5.130379933E0,-5.200000107E-2,5.700000003E-2,-3.099999949E-2
5.135314265E0,-1.000000047E-3,-9.999999776E-3,5.000000075E-2
5.140247926E0,-1.000000047E-3,-9.999999776E-3,5.000000075E-2
5.145181587E0,-1.000000047E-3,-9.999999776E-3,5.000000075E-2
5.150115245E0,-1.000000047E-3,-9.999999776E-3,5.000000075E-2
5.155051083E0,2.099999972E-2,-9.000000358E-2,1.319999993E-1
5.159986914E0,2.099999972E-2,-9.000000358E-2,1.319999993E-1
5.164922745E0,2.099999972E-2,-9.000000358E-2,1.319999993E-1
5.169858429E0,5.999999866E-2,-2.199999988E-2,5.000000075E-2
5.174794104E0,5.999999866E-2,-2.199999988E-2,5.000000075E-2
5.179729779E0,5.999999866E-2,-2.199999988E-2,5.000000075E-2
5.184664757E0,2.899999917E-2,3.299999982E-2,3.599999845E-2
5.189599308E0,2.899999917E-2,3.299999982E-2,3.599999845E-2
5.194533859E0,2.899999917E-2,3.299999982E-2,3.599999845E-2
5.199468160E0,2.700000070E-2,8.000000380E-3,4.899999872E-2
5.204402085E0,2.700000070E-2,8.000000380E-3,4.899999872E-2
5.209336010E0,2.700000070E-2,8.000000380E-3,4.899999872E-2
5.214269994E0,7.999999821E-2,5.000000075E-2,3.500000015E-2
5.219204125E0,7.999999821E-2,5.000000075E-2,3.500000015E-2
5.224138256E0,7.999999821E-2,5.000000075E-2,3.500000015E-2
5.229072384E0,7.999999821E-2,5.000000075E-2,3.500000015E-2
5.234006889E0,1.040000021E-1,5.200000107E-2,2.099999972E-2
5.238941404E0,1.040000021E-1,5.200000107E-2,2.099999972E-2
5.243875919E0,1.040000021E-1,5.200000107E-2,2.099999972E-2
5.248809745E0,3.200000152E-2,6.599999964E-2,-4.600000009E-2
5.253743406E0,3.200000152E-2,6.599999964E-2,-4.600000009E-2
5.258677067E0,3.200000152E-2,6.599999964E-2,-4.600000009E-2
5.263611125E0,-6.800000370E-2,9.999999776E-3,9.000000358E-2
5.268545446E0,-6.800000370E-2,9.999999776E-3,9.000000358E-2
5.273479767E0,-6.800000370E-2,9.999999776E-3,9.000000358E-2
5.278414505E0,-1.650000066E-1,-5.900000036E-2,2.119999975E-1
5.283349786E0,-1.650000066E-1,-5.900000036E-2,2.119999975E-1
5.288285067E0,-1.650000066E-1,-5.900000036E-2,2.119999975E-1
5.293220246E0,-7.100000232E-2,-4.500000179E-2,4.899999872E-2
5.298155157E0,-7.100000232E-2,-4.500000179E-2,4.899999872E-2
5.303090068E0,-7.100000232E-2,-4.500000179E-2,4.899999872E-2
5.308024976E0,-7.100000232E-2,-4.500000179E-2,4.899999872E-2
5.313274973E0,0.000000000E0,8.999999613E-3,-2.230000049E-1
5.318521068E0,0.000000000E0,8.999999613E-3,-2.230000049E-1
5.323767163E0,0.000000000E0,8.999999613E-3,-2.230000049E-1
5.328758241E0,-3.599999845E-2,8.999999613E-3,-2.360000014E-1
5.333690452E0,-3.599999845E-2,8.999999613E-3,-2.360000014E-1
5.338622663E0,-3.599999845E-2,8.999999613E-3,-2.360000014E-1
5.343556332E0,-7.900000364E-2,-5.700000003E-2,3.500000015E-2
5.348491007E0,-7.900000364E-2,-5.700000003E-2,3.500000015E-2
5.353425682E0,-7.900000364E-2,-5.700000003E-2,3.500000015E-2
5.358360771E0,-8.200000226E-2,-6.700000167E-2,2.660000026E-1
5.363296462E0,-8.200000226E-2,-6.700000167E-2,2.660000026E-1
5.368232153E0,-8.200000226E-2,-6.700000167E-2,2.660000026E-1
5.373167596E0,-5.099999905E-2,-3.799999878E-2,2.790000141E-1
5.378102317E0,-5.099999905E-2,-3.799999878E-2,2.790000141E-1
5.383037038E0,-5.099999905E-2,-3.799999878E-2,2.790000141E-1
5.387971756E0,-5.099999905E-2,-3.799999878E-2,2.790000141E-1
5.392906565E0,1.049999967E-1,-4.500000179E-2,1.550000012E-1
5.397841370E0,1.049999967E-1,-4.500000179E-2,1.550000012E-1
5.402776175E0,1.049999967E-1,-4.500000179E-2,1.550000012E-1
5.407711063E0,2.600000054E-2,1.350000054E-1,-7.699999958E-2
5.412645964E0,2.600000054E-2,1.350000054E-1,-7.699999958E-2
5.417580865E0,2.600000054E-2,1.350000054E-1,-7.699999958E-2
5.422516381E0,-1.190000027E-1,1.400000006E-1,-2.269999981E-1
5.427452242E0,-1.190000027E-1,1.400000006E-1,-2.269999981E-1
5.432388103E0,-1.190000027E-1,1.400000006E-1,-2.269999981E-1
5.437323945E0,-1.169999987E-1,1.679999977E-1,-2.300000004E-2
5.442259810E0,-1.169999987E-1,1.679999977E-1,-2.300000004E-2
5.447195675E0,-1.169999987E-1,1.679999977E-1,-2.300000004E-2
5.452131445E0,-4.500000179E-2,4.300000146E-2,2.080000043E-1
5.457066810E0,-4.500000179E-2,4.300000146E-2,2.080000043E-1
5.462002175E0,-4.500000179E-2,4.300000146E-2,2.080000043E-1
5.466937540E0,-4.500000179E-2,4.300000146E-2,2.080000043E-1
5.471872155E0,7.999999821E-2,-7.000000216E-3,2.779999971E-1
5.476806776E0,7.999999821E-2,-7.000000216E-3,2.779999971E-1
5.481741397E0,7.999999821E-2,-7.000000216E-3,2.779999971E-1
5.486677603E0,8.100000024E-2,-1.099999994E-2,4.699999839E-2
5.491614134E0,8.100000024E-2,-1.099999994E-2,4.699999839E-2
5.496550665E0,8.100000024E-2,-1.099999994E-2,4.699999839E-2
5.501486962E0,5.600000173E-2,-3.000000026E-3,-3.200000152E-2
5.506423143E0,5.600000173E-2,-3.000000026E-3,-3.200000152E-2
5.511359324E0,5.600000173E-2,-3.000000026E-3,-3.200000152E-2
5.516295317E0,2.000000095E-3,-3.099999949E-2,-4.600000009E-2
5.521231092E0,2.000000095E-3,-3.099999949E-2,-4.600000009E-2
5.526166867E0,2.000000095E-3,-3.099999949E-2,-4.600000009E-2
5.531102596E0,1.499999966E-2,8.999999613E-3,8.900000155E-2
5.536038151E0,1.499999966E-2,8.999999613E-3,8.900000155E-2
5.540973706E0,1.499999966E-2,8.999999613E-3,8.900000155E-2
5.545909261E0,1.499999966E-2,8.999999613E-3,8.900000155E-2
5.550844964E0,5.400000140E-2,-3.000000026E-3,4.899999872E-2
5.555780635E0,5.400000140E-2,-3.000000026E-3,4.899999872E-2
5.560716306E0,5.400000140E-2,-3.000000026E-3,4.899999872E-2
5.565651264E0,2.199999988E-2,7.800000161E-2,-1.280000061E-1
5.570586105E0,2.199999988E-2,7.800000161E-2,-1.280000061E-1
5.575520946E0,2.199999988E-2,7.800000161E-2,-1.280000061E-1
5.580456200E0,-1.019999981E-1,7.599999756E-2,-2.090000063E-1
5.585391651E0,-1.019999981E-1,7.599999756E-2,-2.090000063E-1
5.590327102E0,-1.019999981E-1,7.599999756E-2,-2.090000063E-1
5.595261993E0,-1.289999932E-1,1.270000041E-1,-2.080000043E-1
5.600196064E0,-1.289999932E-1,1.270000041E-1,-2.080000043E-1
5.605130135E0,-1.289999932E-1,1.270000041E-1,-2.080000043E-1
5.610064425E0,3.400000185E-2,5.200000107E-2,-2.000000095E-3
5.614999490E0,3.400000185E-2,5.200000107E-2,-2.000000095E-3
5.619934555E0,3.400000185E-2,5.200000107E-2,-2.000000095E-3
5.624869620E0,3.400000185E-2,5.200000107E-2,-2.000000095E-3
5.629804871E0,3.400000185E-2,-3.400000185E-2,1.099999994E-2
5.634740062E0,3.400000185E-2,-3.400000185E-2,1.099999994E-2
5.639675253E0,3.400000185E-2,-3.400000185E-2,1.099999994E-2
5.644610378E0,9.999999776E-3,2.300000004E-2,-1.080000028E-1
5.649545503E0,9.999999776E-3,2.300000004E-2,-1.080000028E-1
5.654480628E0,9.999999776E-3,2.300000004E-2,-1.080000028E-1
5.659416369E0,-5.499999970E-2,2.700000070E-2,1.250000000E-1
5.664352494E0,-5.499999970E-2,2.700000070E-2,1.250000000E-1
5.669288619E0,-5.499999970E-2,2.700000070E-2,1.250000000E-1
5.674223970E0,-1.220000014E-1,6.499999762E-2,1.389999986E-1
5.679158211E0,-1.220000014E-1,6.499999762E-2,1.389999986E-1
5.684092452E0,-1.220000014E-1,6.499999762E-2,1.389999986E-1
5.689026584E0,-5.099999905E-2,3.400000185E-2,1.120000035E-1
5.693960529E0,-5.099999905E-2,3.400000185E-2,1.120000035E-1
5.698894474E0,-5.099999905E-2,3.400000185E-2,1.120000035E-1
5.703828419E0,-5.099999905E-2,3.400000185E-2,1.120000035E-1
5.708764934E0,3.200000152E-2,-7.500000298E-2,1.700000092E-2
5.713701389E0,3.200000152E-2,-7.500000298E-2,1.700000092E-2
5.718637844E0,3.200000152E-2,-7.500000298E-2,1.700000092E-2
5.723573316E0,6.300000101E-2,4.999999888E-3,-9.099999815E-2
5.728508611E0,6.300000101E-2,4.999999888E-3,-9.099999815E-2
5.733443906E0,6.300000101E-2,4.999999888E-3,-9.099999815E-2
5.738379904E0,1.049999967E-1,4.999999888E-3,-2.269999981E-1
5.743316339E0,1.049999967E-1,4.999999888E-3,-2.269999981E-1
5.748252774E0,1.049999967E-1,4.999999888E-3,-2.269999981E-1
5.753189559E0,1.070000008E-1,9.799999744E-2,-1.720000058E-1
5.758126740E0,1.070000008E-1,9.799999744E-2,-1.720000058E-1
5.763063921E0,1.070000008E-1,9.799999744E-2,-1.720000058E-1
5.768000539E0,-8.299999684E-2,2.700000070E-2,-2.099999972E-2
5.772935170E0,-8.299999684E-2,2.700000070E-2,-2.099999972E-2
5.777869801E0,-8.299999684E-2,2.700000070E-2,-2.099999972E-2
5.782804429E0,-8.299999684E-2,2.700000070E-2,-2.099999972E-2
5.787741080E0,-4.300000146E-2,-1.499999966E-2,1.689999998E-1
5.792677705E0,-4.300000146E-2,-1.499999966E-2,1.689999998E-1
5.797614330E0,-4.300000146E-2,-1.499999966E-2,1.689999998E-1
5.802550623E0,-4.999999888E-3,-3.200000152E-2,1.969999969E-1
5.807486878E0,-4.999999888E-3,-3.200000152E-2,1.969999969E-1
5.812423133E0,-4.999999888E-3,-3.200000152E-2,1.969999969E-1
5.817357943E0,3.400000185E-2,1.999999955E-2,1.969999969E-1
5.822291898E0,3.400000185E-2,1.999999955E-2,1.969999969E-1
5.827225853E0,3.400000185E-2,1.999999955E-2,1.969999969E-1
5.832160465E0,-1.899999939E-2,4.600000009E-2,1.969999969E-1
5.837095960E0,-1.899999939E-2,4.600000009E-2,1.969999969E-1
5.842031455E0,-1.899999939E-2,4.600000009E-2,1.969999969E-1
5.846966840E0,-1.899999939E-2,3.299999982E-2,1.999999955E-2
5.851901941E0,-1.899999939E-2,3.299999982E-2,1.999999955E-2
5.856837042E0,-1.899999939E-2,3.299999982E-2,1.999999955E-2
5.861772140E0,-1.899999939E-2,3.299999982E-2,1.999999955E-2
5.866707104E0,8.000000380E-3,2.099999972E-2,-1.700000018E-1
5.871642109E0,8.000000380E-3,2.099999972E-2,-1.700000018E-1
5.876577114E0,8.000000380E-3,2.099999972E-2,-1.700000018E-1
5.881512534E0,6.300000101E-2,-1.899999939E-2,-1.999999955E-2
5.886448009E0,6.300000101E-2,-1.899999939E-2,-1.999999955E-2
5.891383484E0,6.300000101E-2,-1.899999939E-2,-1.999999955E-2
5.896318977E0,3.599999845E-2,2.099999972E-2,6.100000069E-2
5.901254438E0,3.599999845E-2,2.099999972E-2,6.100000069E-2
5.906189899E0,3.599999845E-2,2.099999972E-2,6.100000069E-2
5.911125445E0,-3.200000152E-2,1.899999939E-2,1.999999955E-2
5.916061046E0,-3.200000152E-2,1.899999939E-2,1.999999955E-2
5.920996647E0,-3.200000152E-2,1.899999939E-2,1.999999955E-2
5.925932320E0,-4.999999888E-3,-3.500000015E-2,1.289999932E-1
5.930868255E0,-4.999999888E-3,-3.500000015E-2,1.289999932E-1
5.935804190E0,-4.999999888E-3,-3.500000015E-2,1.289999932E-1
5.940740125E0,-4.999999888E-3,-3.500000015E-2,1.289999932E-1
5.945675990E0,1.999999955E-2,-7.599999756E-2,3.059999943E-1
5.950611881E0,1.999999955E-2,-7.599999756E-2,3.059999943E-1
5.955547772E0,1.999999955E-2,-7.599999756E-2,3.059999943E-1
5.960482931E0,4.600000009E-2,-6.000000052E-3,1.700000018E-1
5.965417936E0,4.600000009E-2,-6.000000052E-3,1.700000018E-1
5.970352941E0,4.600000009E-2,-6.000000052E-3,1.700000018E-1
5.975287979E0,1.799999923E-2,1.309999973E-1,-1.289999932E-1
5.980223074E0,1.799999923E-2,1.309999973E-1,-1.289999932E-1
5.985158169E0,1.799999923E-2,1.309999973E-1,-1.289999932E-1
5.990093317E0,-9.999999776E-3,1.599999964E-1,-2.930000126E-1
5.995028602E0,-9.999999776E-3,1.599999964E-1,-2.930000126E-1
5.999963887E0,-9.999999776E-3,1.599999964E-1,-2.930000126E-1
6.004899172E0,-3.799999878E-2,5.099999905E-2,-1.979999989E-1
6.009834553E0,-3.799999878E-2,5.099999905E-2,-1.979999989E-1
6.014769934E0,-3.799999878E-2,5.099999905E-2,-1.979999989E-1
6.019705312E0,-3.799999878E-2,5.099999905E-2,-1.979999989E-1
6.024640688E0,-9.300000221E-2,-4.999999888E-3,2.509999871E-1
6.029576069E0,-9.300000221E-2,-4.999999888E-3,2.509999871E-1
6.034511450E0,-9.300000221E-2,-4.999999888E-3,2.509999871E-1
6.039447020E0,-6.599999964E-2,-6.199999899E-2,2.790000141E-1
6.044382595E0,-6.599999964E-2,-6.199999899E-2,2.790000141E-1
6.049318170E0,-6.599999964E-2,-6.199999899E-2,2.790000141E-1
6.054254405E0,-2.300000004E-2,-1.070000008E-1,2.660000026E-1
6.059191010E0,-2.300000004E-2,-1.070000008E-1,2.660000026E-1
6.064127615E0,-2.300000004E-2,-1.070000008E-1,2.660000026E-1
6.069064162E0,-1.799999923E-2,-6.499999762E-2,1.430000067E-1
6.074000607E0,-1.799999923E-2,-6.499999762E-2,1.430000067E-1
6.078937052E0,-1.799999923E-2,-6.499999762E-2,1.430000067E-1
6.083873529E0,-9.700000286E-2,5.799999833E-2,-8.699999750E-2
6.088810160E0,-9.700000286E-2,5.799999833E-2,-8.699999750E-2
6.093746791E0,-9.700000286E-2,5.799999833E-2,-8.699999750E-2
6.098683419E0,-9.700000286E-2,5.799999833E-2,-8.699999750E-2
6.103619304E0,1.659999937E-1,2.240000069E-1,-3.330000043E-1
6.108555175E0,1.659999937E-1,2.240000069E-1,-3.330000043E-1
6.113491046E0,1.659999937E-1,2.240000069E-1,-3.330000043E-1
6.118426945E0,-2.300000004E-2,2.099999934E-1,-2.790000141E-1
6.123362830E0,-2.300000004E-2,2.099999934E-1,-2.790000141E-1
6.128298715E0,-2.300000004E-2,2.099999934E-1,-2.790000141E-1
6.133234989E0,-1.299999952E-1,3.000000026E-3,1.019999981E-1
6.138171500E0,-1.299999952E-1,3.000000026E-3,1.019999981E-1
6.143108011E0,-1.299999952E-1,3.000000026E-3,1.019999981E-1
6.148043893E0,-3.400000185E-2,-1.099999994E-2,3.339999914E-1
6.152978924E0,-3.400000185E-2,-1.099999994E-2,3.339999914E-1
6.157913955E0,-3.400000185E-2,-1.099999994E-2,3.339999914E-1
6.162849164E0,-7.299999893E-2,-1.799999923E-2,1.860000044E-1
6.167785215E0,-7.299999893E-2,-1.799999923E-2,1.860000044E-1
6.172721266E0,-7.299999893E-2,-1.799999923E-2,1.860000044E-1
6.177657314E0,-7.299999893E-2,-1.799999923E-2,1.860000044E-1
6.182594579E0,7.699999958E-2,7.000000030E-2,1.049999967E-1
6.187531784E0,7.699999958E-2,7.000000030E-2,1.049999967E-1
6.192468989E0,7.699999958E-2,7.000000030E-2,1.049999967E-1
6.197405538E0,-2.000000095E-3,2.700000070E-2,-7.000000030E-2
6.202341963E0,-2.000000095E-3,2.700000070E-2,-7.000000030E-2
6.207278388E0,-2.000000095E-3,2.700000070E-2,-7.000000030E-2
6.212214313E0,-1.400000043E-2,1.330000013E-1,-1.790000051E-1
6.217149918E0,-1.400000043E-2,1.330000013E-1,-1.790000051E-1
6.222085523E0,-1.400000043E-2,1.330000013E-1,-1.790000051E-1
6.227020737E0,-2.600000054E-2,2.199999988E-2,-5.600000173E-2
6.231955338E0,-2.600000054E-2,2.199999988E-2,-5.600000173E-2
6.236889939E0,-2.600000054E-2,2.199999988E-2,-5.600000173E-2
6.241824471E0,-2.500000037E-2,-2.300000004E-2,1.220000014E-1
6.246758732E0,-2.500000037E-2,-2.300000004E-2,1.220000014E-1
6.251692993E0,-2.500000037E-2,-2.300000004E-2,1.220000014E-1
6.256627251E0,-2.500000037E-2,-2.300000004E-2,1.220000014E-1
6.261563557E0,-3.799999878E-2,-1.400000043E-2,2.310000062E-1
6.266499798E0,-3.799999878E-2,-1.400000043E-2,2.310000062E-1
6.271436039E0,-3.799999878E-2,-1.400000043E-2,2.310000062E-1
6.276371533E0,-2.300000004E-2,9.999999776E-3,1.909999996E-1
6.281306898E0,-2.300000004E-2,9.999999776E-3,1.909999996E-1
6.286242263E0,-2.300000004E-2,9.999999776E-3,1.909999996E-1
6.291178194E0,-1.159999967E-1,8.000000380E-3,1.500000060E-1
6.296114465E0,-1.159999967E-1,8.000000380E-3,1.500000060E-1
6.301050736E0,-1.159999967E-1,8.000000380E-3,1.500000060E-1
6.305987072E0,6.199999899E-2,9.000000358E-2,-1.889999956E-1
6.310923487E0,6.199999899E-2,9.000000358E-2,-1.889999956E-1
6.315859902E0,6.199999899E-2,9.000000358E-2,-1.889999956E-1
6.320796293E0,1.200000010E-2,1.289999932E-1,-4.070000052E-1
6.325732548E0,1.200000010E-2,1.289999932E-1,-4.070000052E-1
6.330668803E0,1.200000010E-2,1.289999932E-1,-4.070000052E-1
6.335605058E0,1.200000010E-2,1.289999932E-1,-4.070000052E-1
6.340541058E0,1.000000047E-3,6.000000052E-3,-1.889999956E-1
6.345477049E0,1.000000047E-3,6.000000052E-3,-1.889999956E-1
6.350413040E0,1.000000047E-3,6.000000052E-3,-1.889999956E-1
6.355348570E0,-4.899999872E-2,-6.400000304E-2,5.600000173E-2
6.360284031E0,-4.899999872E-2,-6.400000304E-2,5.600000173E-2
6.365219492E0,-4.899999872E-2,-6.400000304E-2,5.600000173E-2
6.370155682E0,-4.600000009E-2,-1.230000034E-1,1.659999937E-1
6.375092333E0,-4.600000009E-2,-1.230000034E-1,1.659999937E-1
6.380028984E0,-4.600000009E-2,-1.230000034E-1,1.659999937E-1
6.384965187E0,-3.099999949E-2,-7.100000232E-2,2.479999959E-1
6.389900868E0,-3.099999949E-2,-7.100000232E-2,2.479999959E-1
6.394836549E0,-3.099999949E-2,-7.100000232E-2,2.479999959E-1
6.399772274E0,1.200000010E-2,-4.199999943E-2,1.800000072E-1
6.404708115E0,1.200000010E-2,-4.199999943E-2,1.800000072E-1
6.409643956E0,1.200000010E-2,-4.199999943E-2,1.800000072E-1
6.414579794E0,1.200000010E-2,-4.199999943E-2,1.800000072E-1
6.419515917E0,6.700000167E-2,1.000000047E-3,-7.900000364E-2
6.424452068E0,6.700000167E-2,1.000000047E-3,-7.900000364E-2
6.429388219E0,6.700000167E-2,1.000000047E-3,-7.900000364E-2
6.434324083E0,4.199999943E-2,2.199999988E-2,-2.169999927E-1
6.439259878E0,4.199999943E-2,2.199999988E-2,-2.169999927E-1
6.444195673E0,4.199999943E-2,2.199999988E-2,-2.169999927E-1
6.449131836E0,2.000000095E-3,-1.000000047E-3,-8.100000024E-2
6.454068151E0,2.000000095E-3,-1.000000047E-3,-8.100000024E-2
6.459004466E0,2.000000095E-3,-1.000000047E-3,-8.100000024E-2
6.463940725E0,-3.799999878E-2,2.000000095E-3,-2.700000070E-2
6.468876906E0,-3.799999878E-2,2.000000095E-3,-2.700000070E-2
6.473813087E0,-3.799999878E-2,2.000000095E-3,-2.700000070E-2
6.478749065E0,1.080000028E-1,5.900000036E-2,1.070000008E-1
6.483684336E0,1.080000028E-1,5.900000036E-2,1.070000008E-1
6.488619607E0,1.080000028E-1,5.900000036E-2,1.070000008E-1
6.493554875E0,1.080000028E-1,5.900000036E-2,1.070000008E-1
6.498490774E0,1.330000013E-1,4.000000190E-3,6.700000167E-2
6.503426659E0,1.330000013E-1,4.000000190E-3,6.700000167E-2
6.508362544E0,1.330000013E-1,4.000000190E-3,6.700000167E-2
6.513299384E0,5.799999833E-2,-3.599999845E-2,1.480000019E-1
6.518236395E0,5.799999833E-2,-3.599999845E-2,1.480000019E-1
6.523173406E0,5.799999833E-2,-3.599999845E-2,1.480000019E-1
6.528109582E0,-1.200000010E-2,1.700000092E-2,2.029999942E-1
6.533045237E0,-1.200000010E-2,1.700000092E-2,2.029999942E-1
6.537980892E0,-1.200000010E-2,1.700000092E-2,2.029999942E-1
6.542917204E0,-1.899999939E-2,5.799999833E-2,1.889999956E-1
6.547854599E0,-1.899999939E-2,5.799999833E-2,1.889999956E-1
6.552791994E0,-1.899999939E-2,5.799999833E-2,1.889999956E-1
6.557729204E0,-6.499999762E-2,1.899999939E-2,5.299999937E-2
6.562665869E0,-6.499999762E-2,1.899999939E-2,5.299999937E-2
6.567602534E0,-6.499999762E-2,1.899999939E-2,5.299999937E-2
6.572539199E0,-6.499999762E-2,1.899999939E-2,5.299999937E-2
6.577475555E0,1.400000043E-2,-6.000000052E-3,-5.499999970E-2
6.582411906E0,1.400000043E-2,-6.000000052E-3,-5.499999970E-2
6.587348257E0,1.400000043E-2,-6.000000052E-3,-5.499999970E-2
6.592284914E0,5.299999937E-2,-4.600000009E-2,-8.299999684E-2
6.597221639E0,5.299999937E-2,-4.600000009E-2,-8.299999684E-2
6.602158364E0,5.299999937E-2,-4.600000009E-2,-8.299999684E-2
6.607095245E0,3.900000080E-2,-4.999999888E-3,-1.369999945E-1
6.612032166E0,3.900000080E-2,-4.999999888E-3,-1.369999945E-1
6.616969087E0,3.900000080E-2,-4.999999888E-3,-1.369999945E-1
6.621905937E0,-6.800000370E-2,-5.999999866E-2,-1.000000047E-3
6.626842742E0,-6.800000370E-2,-5.999999866E-2,-1.000000047E-3
6.631779547E0,-6.800000370E-2,-5.999999866E-2,-1.000000047E-3
6.636716343E0,-2.700000070E-2,-1.010000035E-1,1.200000010E-2
6.641653004E0,-2.700000070E-2,-1.010000035E-1,1.200000010E-2
6.646589665E0,-2.700000070E-2,-1.010000035E-1,1.200000010E-2
6.651526323E0,-2.700000070E-2,-1.010000035E-1,1.200000010E-2
6.656461761E0,4.100000113E-2,-4.000000190E-3,1.199999973E-1
6.661397226E0,4.100000113E-2,-4.000000190E-3,1.199999973E-1
6.666332691E0,4.100000113E-2,-4.000000190E-3,1.199999973E-1
6.671268200E0,1.360000074E-1,-5.299999937E-2,2.010000050E-1
6.676203701E0,1.360000074E-1,-5.299999937E-2,2.010000050E-1
6.681139202E0,1.360000074E-1,-5.299999937E-2,2.010000050E-1
6.686074531E0,2.579999864E-1,-1.710000038E-1,1.049999967E-1
6.691009822E0,2.579999864E-1,-1.710000038E-1,1.049999967E-1
6.695945113E0,2.579999864E-1,-1.710000038E-1,1.049999967E-1
6.700880595E0,1.140000001E-1,8.100000024E-2,8.000000380E-3
6.705816360E0,1.140000001E-1,8.100000024E-2,8.000000380E-3
6.710752125E0,1.140000001E-1,8.100000024E-2,8.000000380E-3
6.715688077E0,9.300000221E-2,5.700000003E-2,3.400000185E-2
6.720624588E0,9.300000221E-2,5.700000003E-2,3.400000185E-2
6.725561099E0,9.300000221E-2,5.700000003E-2,3.400000185E-2
6.730497607E0,9.300000221E-2,5.700000003E-2,3.400000185E-2
6.735432790E0,1.280000061E-1,-4.000000190E-3,2.919999957E-1
6.740368015E0,1.280000061E-1,-4.000000190E-3,2.919999957E-1
6.745303240E0,1.280000061E-1,-4.000000190E-3,2.919999957E-1
6.750238411E0,1.589999944E-1,-3.900000080E-2,1.140000001E-1
6.755173582E0,1.589999944E-1,-3.900000080E-2,1.140000001E-1
6.760108753E0,1.589999944E-1,-3.900000080E-2,1.140000001E-1
6.765044693E0,1.480000019E-1,1.600000076E-2,-3.500000015E-2
6.769981128E0,1.480000019E-1,1.600000076E-2,-3.500000015E-2
6.774917563E0,1.480000019E-1,1.600000076E-2,-3.500000015E-2
6.779853882E0,8.000000380E-3,3.200000152E-2,-6.300000101E-2
6.784789967E0,8.000000380E-3,3.200000152E-2,-6.300000101E-2
6.789726052E0,8.000000380E-3,3.200000152E-2,-6.300000101E-2
6.794662142E0,-5.299999937E-2,4.600000009E-2,-8.999999613E-3
6.799598293E0,-5.299999937E-2,4.600000009E-2,-8.999999613E-3
6.804534444E0,-5.299999937E-2,4.600000009E-2,-8.999999613E-3
6.809470592E0,-5.299999937E-2,4.600000009E-2,-8.999999613E-3
6.814406636E0,9.700000286E-2,-3.400000185E-2,1.700000092E-2
6.819342697E0,9.700000286E-2,-3.400000185E-2,1.700000092E-2
6.824278758E0,9.700000286E-2,-3.400000185E-2,1.700000092E-2
6.829215069E0,3.700000048E-2,-7.000000216E-3,3.099999949E-2
6.834151410E0,3.700000048E-2,-7.000000216E-3,3.099999949E-2
6.839087751E0,3.700000048E-2,-7.000000216E-3,3.099999949E-2
6.844024614E0,2.899999917E-2,3.099999949E-2,4.500000179E-2
6.848961819E0,2.899999917E-2,3.099999949E-2,4.500000179E-2
6.853899024E0,2.899999917E-2,3.099999949E-2,4.500000179E-2
6.858836047E0,-7.000000030E-2,-7.800000161E-2,-6.300000101E-2
6.863772782E0,-7.000000030E-2,-7.800000161E-2,-6.300000101E-2
6.868709517E0,-7.000000030E-2,-7.800000161E-2,-6.300000101E-2
6.873646217E0,3.700000048E-2,4.399999976E-2,1.799999923E-2
6.878582928E0,3.700000048E-2,4.399999976E-2,1.799999923E-2
6.883519639E0,3.700000048E-2,4.399999976E-2,1.799999923E-2
6.888456347E0,3.700000048E-2,4.399999976E-2,1.799999923E-2
6.893392608E0,1.289999932E-1,5.799999833E-2,2.489999980E-1
6.898328889E0,1.289999932E-1,5.799999833E-2,2.489999980E-1
6.903265170E0,1.289999932E-1,5.799999833E-2,2.489999980E-1
6.908201072E0,-1.299999952E-1,-4.029999971E-1,-2.949999869E-1
6.913136943E0,-1.299999952E-1,-4.029999971E-1,-2.949999869E-1
6.918072814E0,-1.299999952E-1,-4.029999971E-1,-2.949999869E-1
6.923008091E0,2.060000002E-1,2.400000021E-2,1.600000076E-2
6.927943002E0,2.060000002E-1,2.400000021E-2,1.600000076E-2
6.932877913E0,2.060000002E-1,2.400000021E-2,1.600000076E-2
6.937813096E0,2.849999964E-1,1.759999990E-1,1.519999951E-1
6.942748647E0,2.849999964E-1,1.759999990E-1,1.519999951E-1
6.947684198E0,2.849999964E-1,1.759999990E-1,1.519999951E-1
6.952620012E0,6.700000167E-2,4.300000146E-2,1.379999965E-1
6.957556833E0,6.700000167E-2,4.300000146E-2,1.379999965E-1
6.962493654E0,6.700000167E-2,4.300000146E-2,1.379999965E-1
6.967430472E0,6.700000167E-2,4.300000146E-2,1.379999965E-1
6.972366618E0,-5.600000173E-2,7.299999893E-2,9.600000083E-2
6.977302779E0,-5.600000173E-2,7.299999893E-2,9.600000083E-2
6.982238940E0,-5.600000173E-2,7.299999893E-2,9.600000083E-2
6.987174539E0,4.999999888E-3,7.299999893E-2,5.499999970E-2
6.992110024E0,4.999999888E-3,7.299999893E-2,5.499999970E-2
6.997045509E0,4.999999888E-3,7.299999893E-2,5.499999970E-2
7.001980700E0,4.800000042E-2,-5.099999905E-2,1.780000031E-1
7.006915705E0,4.800000042E-2,-5.099999905E-2,1.780000031E-1
7.011850710E0,4.800000042E-2,-5.099999905E-2,1.780000031E-1
7.016786306E0,-2.300000004E-2,-1.739999950E-1,3.549999893E-1
7.021722741E0,-2.300000004E-2,-1.739999950E-1,3.549999893E-1
7.026659176E0,-2.300000004E-2,-1.739999950E-1,3.549999893E-1
7.031595376E0,1.099999994E-2,-1.809999943E-1,4.900000095E-1
7.036530791E0,1.099999994E-2,-1.809999943E-1,4.900000095E-1
7.041466206E0,1.099999994E-2,-1.809999943E-1,4.900000095E-1
7.046401621E0,1.099999994E-2,-1.809999943E-1,4.900000095E-1
7.051337998E0,-8.699999750E-2,-2.919999957E-1,4.469999969E-1
7.056274313E0,-8.699999750E-2,-2.919999957E-1,4.469999969E-1
7.061210628E0,-8.699999750E-2,-2.919999957E-1,4.469999969E-1
7.066146828E0,-1.410000026E-1,-1.309999973E-1,1.449999958E-1
7.071083009E0,-1.410000026E-1,-1.309999973E-1,1.449999958E-1
7.076019190E0,-1.410000026E-1,-1.309999973E-1,1.449999958E-1
7.080955260E0,-8.299999684E-2,-1.659999937E-1,-3.790000081E-1
7.085891321E0,-8.299999684E-2,-1.659999937E-1,-3.790000081E-1
7.090827382E0,-8.299999684E-2,-1.659999937E-1,-3.790000081E-1
7.095763036E0,-2.829999924E-1,8.200000226E-2,-2.610000074E-1
7.100698211E0,-2.829999924E-1,8.200000226E-2,-2.610000074E-1
7.105633386E0,-2.829999924E-1,8.200000226E-2,-2.610000074E-1
7.110568573E0,-1.749999970E-1,2.800000086E-2,-1.169999987E-1
7.115503788E0,-1.749999970E-1,2.800000086E-2,-1.169999987E-1
7.120439003E0,-1.749999970E-1,2.800000086E-2,-1.169999987E-1
7.125374218E0,-1.749999970E-1,2.800000086E-2,-1.169999987E-1
7.130310324E0,5.000000075E-2,1.030000001E-1,-1.319999993E-1
7.135246449E0,5.000000075E-2,1.030000001E-1,-1.319999993E-1
7.140182574E0,5.000000075E-2,1.030000001E-1,-1.319999993E-1
7.145117664E0,2.660000026E-1,7.699999958E-2,-9.099999815E-2
7.150052505E0,2.660000026E-1,7.699999958E-2,-9.099999815E-2
7.154987346E0,2.660000026E-1,7.699999958E-2,-9.099999815E-2
7.159922813E0,5.180000067E-1,1.689999998E-1,-4.899999872E-2
7.164858674E0,5.180000067E-1,1.689999998E-1,-4.899999872E-2
7.169794535E0,5.180000067E-1,1.689999998E-1,-4.899999872E-2
7.174730628E0,3.790000081E-1,1.780000031E-1,-2.800000012E-1
7.179667069E0,3.790000081E-1,1.780000031E-1,-2.800000012E-1
7.184603510E0,3.790000081E-1,1.780000031E-1,-2.800000012E-1
7.189540228E0,2.430000007E-1,6.599999964E-2,-4.500000179E-2
7.194477889E0,2.430000007E-1,6.599999964E-2,-4.500000179E-2
7.199415550E0,2.430000007E-1,6.599999964E-2,-4.500000179E-2
7.204353208E0,2.430000007E-1,6.599999964E-2,-4.500000179E-2
7.209289961E0,-2.129999995E-1,-6.400000304E-2,-2.000000095E-3
7.214226722E0,-2.129999995E-1,-6.400000304E-2,-2.000000095E-3
7.219163483E0,-2.129999995E-1,-6.400000304E-2,-2.000000095E-3
7.224099118E0,-1.930000037E-1,-1.469999999E-1,-1.630000025E-1
7.229034509E0,-1.930000037E-1,-1.469999999E-1,-1.630000025E-1
7.233969900E0,-1.930000037E-1,-1.469999999E-1,-1.630000025E-1
7.238906069E0,-1.089999974E-1,-2.610000074E-1,-2.169999927E-1
7.243842694E0,-1.089999974E-1,-2.610000074E-1,-2.169999927E-1
7.248779319E0,-1.089999974E-1,-2.610000074E-1,-2.169999927E-1
7.253715821E0,-2.199999988E-1,-3.740000129E-1,5.499999970E-2
7.258652052E0,-2.199999988E-1,-3.740000129E-1,5.499999970E-2
7.263588283E0,-2.199999988E-1,-3.740000129E-1,5.499999970E-2
7.268524391E0,-3.860000074E-1,-4.550000131E-1,2.020000070E-1
7.273460092E0,-3.860000074E-1,-4.550000131E-1,2.020000070E-1
7.278395793E0,-3.860000074E-1,-4.550000131E-1,2.020000070E-1
7.283331491E0,-3.860000074E-1,-4.550000131E-1,2.020000070E-1
7.288268546E0,-7.429999709E-1,-5.059999824E-1,7.979999781E-1
7.293205557E0,-7.429999709E-1,-5.059999824E-1,7.979999781E-1
7.298142568E0,-7.429999709E-1,-5.059999824E-1,7.979999781E-1
7.303078634E0,-9.359999895E-1,-5.939999819E-1,6.660000086E-1
7.308014505E0,-9.359999895E-1,-5.939999819E-1,6.660000086E-1
7.312950376E0,-9.359999895E-1,-5.939999819E-1,6.660000086E-1
7.317886686E0,-7.760000229E-1,-3.210000098E-1,4.819999933E-1
7.322823197E0,-7.760000229E-1,-3.210000098E-1,4.819999933E-1
7.327759708E0,-7.760000229E-1,-3.210000098E-1,4.819999933E-1
7.332696195E0,-6.710000038E-1,-5.059999824E-1,4.679999948E-1
7.337632640E0,-6.710000038E-1,-5.059999824E-1,4.679999948E-1
7.342569085E0,-6.710000038E-1,-5.059999824E-1,4.679999948E-1
7.347505531E0,-1.095999956E0,-5.000000000E-1,6.409999728E-1
7.352441806E0,-1.095999956E0,-5.000000000E-1,6.409999728E-1
7.357378081E0,-1.095999956E0,-5.000000000E-1,6.409999728E-1
7.362314356E0,-1.095999956E0,-5.000000000E-1,6.409999728E-1
7.367250489E0,-1.400000043E-2,1.799999923E-2,1.899999939E-2
7.372186624E0,-1.400000043E-2,1.799999923E-2,1.899999939E-2
7.377122759E0,-1.400000043E-2,1.799999923E-2,1.899999939E-2
7.382058930E0,2.980000079E-1,3.170000017E-1,-7.469999790E-1
7.386995105E0,2.980000079E-1,3.170000017E-1,-7.469999790E-1
7.391931280E0,2.980000079E-1,3.170000017E-1,-7.469999790E-1
7.396868065E0,6.719999909E-1,2.280000001E-1,-5.360000134E-1
7.401805270E0,6.719999909E-1,2.280000001E-1,-5.360000134E-1
7.406742475E0,6.719999909E-1,2.280000001E-1,-5.360000134E-1
7.411679317E0,4.359999895E-1,3.599999845E-2,1.220000014E-1
7.416615768E0,4.359999895E-1,3.599999845E-2,1.220000014E-1
7.421552219E0,4.359999895E-1,3.599999845E-2,1.220000014E-1
7.426488872E0,3.030000031E-1,-9.499999881E-2,7.739999890E-1
7.431426367E0,3.030000031E-1,-9.499999881E-2,7.739999890E-1
7.436363862E0,3.030000031E-1,-9.499999881E-2,7.739999890E-1
7.441301342E0,3.030000031E-1,-9.499999881E-2,7.739999890E-1
7.446237641E0,1.360000074E-1,-8.500000089E-2,9.269999862E-1
7.451173972E0,1.360000074E-1,-8.500000089E-2,9.269999862E-1
7.456110303E0,1.360000074E-1,-8.500000089E-2,9.269999862E-1
7.461046343E0,1.659999937E-1,-1.689999998E-1,5.210000277E-1
7.465982308E0,1.659999937E-1,-1.689999998E-1,5.210000277E-1
7.470918273E0,1.659999937E-1,-1.689999998E-1,5.210000277E-1
7.475854078E0,2.389999926E-1,-2.569999993E-1,4.790000021E-1
7.480789873E0,2.389999926E-1,-2.569999993E-1,4.790000021E-1
7.485725668E0,2.389999926E-1,-2.569999993E-1,4.790000021E-1
7.490661610E0,2.849999964E-1,-3.409999907E-1,4.740000069E-1
7.495597735E0,2.849999964E-1,-3.409999907E-1,4.740000069E-1
7.500533860E0,2.849999964E-1,-3.409999907E-1,4.740000069E-1
7.505470112E0,3.249999881E-1,-2.689999938E-1,7.500000298E-2
7.510406767E0,3.249999881E-1,-2.689999938E-1,7.500000298E-2
7.515343422E0,3.249999881E-1,-2.689999938E-1,7.500000298E-2
7.520280077E0,3.249999881E-1,-2.689999938E-1,7.500000298E-2
7.525216641E0,2.860000134E-1,-4.819999933E-1,-3.569999933E-1
7.530153182E0,2.860000134E-1,-4.819999933E-1,-3.569999933E-1
7.535089723E0,2.860000134E-1,-4.819999933E-1,-3.569999933E-1
7.540026394E0,1.260000020E-1,4.699999839E-2,-1.459999979E-1
7.544963099E0,1.260000020E-1,4.699999839E-2,-1.459999979E-1
7.549899804E0,1.260000020E-1,4.699999839E-2,-1.459999979E-1
7.554836551E0,2.949999869E-1,-4.899999872E-2,2.750000060E-1
7.559773302E0,2.949999869E-1,-4.899999872E-2,2.750000060E-1
7.564710053E0,2.949999869E-1,-4.899999872E-2,2.750000060E-1
7.569646674E0,9.300000221E-2,-2.540000081E-1,2.230000049E-1
7.574583095E0,9.300000221E-2,-2.540000081E-1,2.230000049E-1
7.579519516E0,9.300000221E-2,-2.540000081E-1,2.230000049E-1
7.584455800E0,2.150000036E-1,7.000000216E-3,3.280000091E-1
7.589391791E0,2.150000036E-1,7.000000216E-3,3.280000091E-1
7.594327782E0,2.150000036E-1,7.000000216E-3,3.280000091E-1
7.599263770E0,2.150000036E-1,7.000000216E-3,3.280000091E-1
7.604199665E0,1.490000039E-1,-8.600000292E-2,1.570000052E-1
7.609135510E0,1.490000039E-1,-8.600000292E-2,1.570000052E-1
7.614071355E0,1.490000039E-1,-8.600000292E-2,1.570000052E-1
7.619007480E0,-3.900000080E-2,-1.550000012E-1,-7.699999958E-2
7.623943631E0,-3.900000080E-2,-1.550000012E-1,-7.699999958E-2
7.628879782E0,-3.900000080E-2,-1.550000012E-1,-7.699999958E-2
7.633815408E0,-1.529999971E-1,2.800000086E-2,-2.800000086E-2
7.638750729E0,-1.529999971E-1,2.800000086E-2,-2.800000086E-2
7.643686050E0,-1.529999971E-1,2.800000086E-2,-2.800000086E-2
7.648621343E0,2.680000067E-1,-2.680000067E-1,2.249999940E-1
7.653556514E0,2.680000067E-1,-2.680000067E-1,2.249999940E-1
7.658491685E0,2.680000067E-1,-2.680000067E-1,2.249999940E-1
7.663427232E0,1.260000020E-1,-5.499999970E-2,3.449999988E-1
7.668364267E0,1.260000020E-1,-5.499999970E-2,3.449999988E-1
7.673301302E0,1.260000020E-1,-5.499999970E-2,3.449999988E-1
7.678238337E0,1.260000020E-1,-5.499999970E-2,3.449999988E-1
7.683174671E0,-1.360000074E-1,3.999999911E-2,8.200000226E-2
7.688111022E0,-1.360000074E-1,3.999999911E-2,8.200000226E-2
7.693047373E0,-1.360000074E-1,3.999999911E-2,8.200000226E-2
7.697983858E0,-8.100000024E-2,1.689999998E-1,-2.319999933E-1
7.702920369E0,-8.100000024E-2,1.689999998E-1,-2.319999933E-1
7.707856880E0,-8.100000024E-2,1.689999998E-1,-2.319999933E-1
7.712793477E0,-9.499999881E-2,2.569999993E-1,-2.879999876E-1
7.717730132E0,-9.499999881E-2,2.569999993E-1,-2.879999876E-1
7.722666787E0,-9.499999881E-2,2.569999993E-1,-2.879999876E-1
7.727603632E0,-2.709999979E-1,1.630000025E-1,-5.700000003E-2
7.732540743E0,-2.709999979E-1,1.630000025E-1,-5.700000003E-2
7.737477854E0,-2.709999979E-1,1.630000025E-1,-5.700000003E-2
7.742414870E0,-6.309999824E-1,1.700000018E-1,9.300000221E-2
7.747351511E0,-6.309999824E-1,1.700000018E-1,9.300000221E-2
7.752288152E0,-6.309999824E-1,1.700000018E-1,9.300000221E-2
7.757224790E0,-6.309999824E-1,1.700000018E-1,9.300000221E-2
7.762160243E0,-2.660000026E-1,-4.160000086E-1,-2.150000036E-1
7.767095708E0,-2.660000026E-1,-4.160000086E-1,-2.150000036E-1
7.772031173E0,-2.660000026E-1,-4.160000086E-1,-2.150000036E-1
7.776967469E0,-1.220000014E-1,-3.140000105E-1,-7.039999962E-1
7.781903930E0,-1.220000014E-1,-3.140000105E-1,-7.039999962E-1
7.786840391E0,-1.220000014E-1,-3.140000105E-1,-7.039999962E-1
7.791776633E0,-2.790000141E-1,-5.019999743E-1,-7.160000205E-1
7.796712788E0,-2.790000141E-1,-5.019999743E-1,-7.160000205E-1
7.801648943E0,-2.790000141E-1,-5.019999743E-1,-7.160000205E-1
7.806584836E0,-4.040000141E-1,-1.379999965E-1,-2.660000026E-1
7.811520321E0,-4.040000141E-1,-1.379999965E-1,-2.660000026E-1
7.816455806E0,-4.040000141E-1,-1.379999965E-1,-2.660000026E-1
7.821391343E0,-1.299999952E-1,-8.699999750E-2,-2.569999993E-1
7.826327084E0,-1.299999952E-1,-8.699999750E-2,-2.569999993E-1
7.831262825E0,-1.299999952E-1,-8.699999750E-2,-2.569999993E-1
7.836198563E0,-1.299999952E-1,-8.699999750E-2,-2.569999993E-1
7.841134147E0,2.520000041E-1,8.399999887E-2,-9.139999747E-1
7.846069752E0,2.520000041E-1,8.399999887E-2,-9.139999747E-1
7.851005357E0,2.520000041E-1,8.399999887E-2,-9.139999747E-1
7.855941571E0,3.970000148E-1,1.509999931E-1,-1.445999980E0
7.860877886E0,3.970000148E-1,1.509999931E-1,-1.445999980E0
7.865814201E0,3.970000148E-1,1.509999931E-1,-1.445999980E0
7.870750702E0,5.759999752E-1,-6.899999827E-2,-1.087000012E0
7.875687357E0,5.759999752E-1,-6.899999827E-2,-1.087000012E0
7.880624012E0,5.759999752E-1,-6.899999827E-2,-1.087000012E0
7.885560562E0,5.210000277E-1,-2.720000148E-1,-9.060000181E-1
7.890496913E0,5.210000277E-1,-2.720000148E-1,-9.060000181E-1
7.895433264E0,5.210000277E-1,-2.720000148E-1,-9.060000181E-1
7.900369467E0,5.320000052E-1,3.099999949E-2,-9.340000153E-1
7.905305218E0,5.320000052E-1,3.099999949E-2,-9.340000153E-1
7.910240969E0,5.320000052E-1,3.099999949E-2,-9.340000153E-1
7.915176717E0,5.320000052E-1,3.099999949E-2,-9.340000153E-1
7.920112583E0,6.589999795E-1,1.159999967E-1,-8.980000019E-1
7.925048448E0,6.589999795E-1,1.159999967E-1,-8.980000019E-1
7.929984313E0,6.589999795E-1,1.159999967E-1,-8.980000019E-1
7.934920802E0,6.330000162E-1,3.799999878E-2,-5.680000186E-1
7.939857457E0,6.330000162E-1,3.799999878E-2,-5.680000186E-1
7.944794112E0,6.330000162E-1,3.799999878E-2,-5.680000186E-1
7.949731065E0,4.189999998E-1,9.899999946E-2,-2.000000030E-1
7.954668250E0,4.189999998E-1,9.899999946E-2,-2.000000030E-1
7.959605435E0,4.189999998E-1,9.899999946E-2,-2.000000030E-1
7.964542466E0,-2.259999961E-1,4.300000072E-1,-7.789999843E-1
7.969479321E0,-2.259999961E-1,4.300000072E-1,-7.789999843E-1
7.974416176E0,-2.259999961E-1,4.300000072E-1,-7.789999843E-1
7.979352955E0,-3.240000010E-1,1.194000006E0,-1.876999974E0
7.984289476E0,-3.240000010E-1,1.194000006E0,-1.876999974E0
7.989225997E0,-3.240000010E-1,1.194000006E0,-1.876999974E0
7.994162515E0,-3.240000010E-1,1.194000006E0,-1.876999974E0
7.999099088E0,-5.519999862E-1,1.679999948E0,-3.019000053E0
8.004035649E0,-5.519999862E-1,1.679999948E0,-3.019000053E0
8.008972210E0,-5.519999862E-1,1.679999948E0,-3.019000053E0
8.013907633E0,-3.310000002E-1,1.646999955E0,-3.680000067E0
8.018842808E0,-3.310000002E-1,1.646999955E0,-3.680000067E0
8.023777983E0,-3.310000002E-1,1.646999955E0,-3.680000067E0
8.028713806E0,-1.309999973E-1,1.460999966E0,-3.026999950E0
8.033650051E0,-1.309999973E-1,1.460999966E0,-3.026999950E0
8.038586296E0,-1.309999973E-1,1.460999966E0,-3.026999950E0
8.043522627E0,1.459999979E-1,8.360000253E-1,-9.909999967E-1
8.048459068E0,1.459999979E-1,8.360000253E-1,-9.909999967E-1
8.053395509E0,1.459999979E-1,8.360000253E-1,-9.909999967E-1
8.058331721E0,4.530000091E-1,1.840000004E-1,8.700000048E-1
8.063267306E0,4.530000091E-1,1.840000004E-1,8.700000048E-1
8.068202891E0,4.530000091E-1,1.840000004E-1,8.700000048E-1
8.073138476E0,4.530000091E-1,1.840000004E-1,8.700000048E-1
8.078073677E0,5.550000072E-1,9.600000083E-2,2.013000011E0
8.083008872E0,5.550000072E-1,9.600000083E-2,2.013000011E0
8.087944067E0,5.550000072E-1,9.600000083E-2,2.013000011E0
8.092879819E0,9.279999733E-1,7.900000364E-2,1.633000016E0
8.097815704E0,9.279999733E-1,7.900000364E-2,1.633000016E0
8.102751589E0,9.279999733E-1,7.900000364E-2,1.633000016E0
8.107687562E0,9.259999990E-1,9.200000018E-2,1.473000050E0
8.112623593E0,9.259999990E-1,9.200000018E-2,1.473000050E0
8.117559624E0,9.259999990E-1,9.200000018E-2,1.473000050E0
8.122496174E0,6.219999790E-1,2.230000049E-1,1.570000052E0
8.127433405E0,6.219999790E-1,2.230000049E-1,1.570000052E0
8.132370636E0,6.219999790E-1,2.230000049E-1,1.570000052E0
8.137308156E0,2.849999964E-1,3.019999862E-1,1.662999988E0
8.142246517E0,2.849999964E-1,3.019999862E-1,1.662999988E0
8.147184878E0,2.849999964E-1,3.019999862E-1,1.662999988E0
8.152123236E0,2.849999964E-1,3.019999862E-1,1.662999988E0
8.157061082E0,1.490000039E-1,2.820000052E-1,1.689000010E0
8.161998947E0,1.490000039E-1,2.820000052E-1,1.689000010E0
8.166936812E0,1.490000039E-1,2.820000052E-1,1.689000010E0
8.171873859E0,-1.140000001E-1,3.179999888E-1,1.371999979E0
8.176810720E0,-1.140000001E-1,3.179999888E-1,1.371999979E0
8.181747581E0,-1.140000001E-1,3.179999888E-1,1.371999979E0
8.186684782E0,0.000000000E0,4.600000009E-2,1.562000036E0
8.191622157E0,0.000000000E0,4.600000009E-2,1.562000036E0
8.196559532E0,0.000000000E0,4.600000009E-2,1.562000036E0
8.201496659E0,-4.009999931E-1,-1.770000011E-1,1.682000041E0
8.206433420E0,-4.009999931E-1,-1.770000011E-1,1.682000041E0
8.211370181E0,-4.009999931E-1,-1.770000011E-1,1.682000041E0
8.216306651E0,-4.329999983E-1,-1.410000026E-1,1.802999973E0
8.221242142E0,-4.329999983E-1,-1.410000026E-1,1.802999973E0
8.226177633E0,-4.329999983E-1,-1.410000026E-1,1.802999973E0
8.231113121E0,-4.329999983E-1,-1.410000026E-1,1.802999973E0
8.236048865E0,-5.199999809E-1,-4.990000129E-1,1.296000004E0
8.240984630E0,-5.199999809E-1,-4.990000129E-1,1.296000004E0
8.245920395E0,-5.199999809E-1,-4.990000129E-1,1.296000004E0
8.250855935E0,-5.709999800E-1,-4.420000017E-1,1.358999968E0
8.255791396E0,-5.709999800E-1,-4.420000017E-1,1.358999968E0
8.260726857E0,-5.709999800E-1,-4.420000017E-1,1.358999968E0
8.265662777E0,-1.889999956E-1,-4.800000042E-2,1.149000049E0
8.270598952E0,-1.889999956E-1,-4.800000042E-2,1.149000049E0
8.275535127E0,-1.889999956E-1,-4.800000042E-2,1.149000049E0
8.280471505E0,2.020000070E-1,1.000000047E-3,8.069999814E-1
8.285408040E0,2.020000070E-1,1.000000047E-3,8.069999814E-1
8.290344575E0,2.020000070E-1,1.000000047E-3,8.069999814E-1
8.295281189E0,-5.339999795E-1,-1.599999964E-1,4.320000112E-1
8.300218014E0,-5.339999795E-1,-1.599999964E-1,4.320000112E-1
8.305154839E0,-5.339999795E-1,-1.599999964E-1,4.320000112E-1
8.310091664E0,-5.339999795E-1,-1.599999964E-1,4.320000112E-1
8.315028223E0,-3.000000119E-1,-4.560000002E-1,8.130000234E-1
8.319964764E0,-3.000000119E-1,-4.560000002E-1,8.130000234E-1
8.324901305E0,-3.000000119E-1,-4.560000002E-1,8.130000234E-1
8.329836861E0,-2.820000052E-1,-5.849999785E-1,1.432999969E0
8.334772156E0,-2.820000052E-1,-5.849999785E-1,1.432999969E0
8.339707451E0,-2.820000052E-1,-5.849999785E-1,1.432999969E0
8.344643249E0,1.949999928E-1,-7.120000124E-1,1.702999949E0
8.349579374E0,1.949999928E-1,-7.120000124E-1,1.702999949E0
8.354515499E0,1.949999928E-1,-7.120000124E-1,1.702999949E0
8.359451574E0,7.390000224E-1,-6.840000153E-1,1.570999980E0
8.364387659E0,7.390000224E-1,-6.840000153E-1,1.570999980E0
8.369323744E0,7.390000224E-1,-6.840000153E-1,1.570999980E0
8.374259665E0,5.780000091E-1,-6.150000095E-1,1.473999977E0
8.379194960E0,5.780000091E-1,-6.150000095E-1,1.473999977E0
8.384130255E0,5.780000091E-1,-6.150000095E-1,1.473999977E0
8.389065550E0,5.780000091E-1,-6.150000095E-1,1.473999977E0
8.394001014E0,3.079999983E-1,-3.519999981E-1,6.919999719E-1
8.398936489E0,3.079999983E-1,-3.519999981E-1,6.919999719E-1
8.403871964E0,3.079999983E-1,-3.519999981E-1,6.919999719E-1
8.408808812E0,4.899999872E-2,-2.619999945E-1,-5.799999833E-2
8.413745993E0,4.899999872E-2,-2.619999945E-1,-5.799999833E-2
8.418683174E0,4.899999872E-2,-2.619999945E-1,-5.799999833E-2
8.423621032E0,-1.200000010E-2,-1.480000019E-1,-4.939999878E-1
8.428559297E0,-1.200000010E-2,-1.480000019E-1,-4.939999878E-1
8.433497562E0,-1.200000010E-2,-1.480000019E-1,-4.939999878E-1
8.438435295E0,-2.029999942E-1,-1.509999931E-1,-5.759999752E-1
8.443372226E0,-2.029999942E-1,-1.509999931E-1,-5.759999752E-1
8.448309157E0,-2.029999942E-1,-1.509999931E-1,-5.759999752E-1
8.453245891E0,-1.499999966E-2,-1.099999994E-1,-1.430000067E-1
8.458181982E0,-1.499999966E-2,-1.099999994E-1,-1.430000067E-1
8.463118073E0,-1.499999966E-2,-1.099999994E-1,-1.430000067E-1
8.468054161E0,-1.499999966E-2,-1.099999994E-1,-1.430000067E-1
8.472991067E0,1.870000064E-1,3.400000185E-2,-5.950000286E-1
8.477927982E0,1.870000064E-1,3.400000185E-2,-5.950000286E-1
8.482864897E0,1.870000064E-1,3.400000185E-2,-5.950000286E-1
8.487801923E0,4.050000012E-1,1.260000020E-1,-9.079999924E-1
8.492739014E0,4.050000012E-1,1.260000020E-1,-9.079999924E-1
8.497676105E0,4.050000012E-1,1.260000020E-1,-9.079999924E-1
8.502613119E0,1.729999930E-1,4.399999976E-2,-1.162999988E0
8.507550140E0,1.729999930E-1,4.399999976E-2,-1.162999988E0
8.512487161E0,1.729999930E-1,4.399999976E-2,-1.162999988E0
8.517424113E0,-1.419000030E0,-2.890000045E-1,4.180000126E-1
8.522361064E0,-1.419000030E0,-2.890000045E-1,4.180000126E-1
8.527298015E0,-1.419000030E0,-2.890000045E-1,4.180000126E-1
8.532234857E0,3.659999967E-1,-5.780000091E-1,-1.700999975E0
8.537171568E0,3.659999967E-1,-5.780000091E-1,-1.700999975E0
8.542108279E0,3.659999967E-1,-5.780000091E-1,-1.700999975E0
8.547044987E0,3.659999967E-1,-5.780000091E-1,-1.700999975E0
8.551982276E0,-2.989999950E-1,-1.780000031E-1,-1.682000041E0
8.556919581E0,-2.989999950E-1,-1.780000031E-1,-1.682000041E0
8.561856886E0,-2.989999950E-1,-1.780000031E-1,-1.682000041E0
8.566793939E0,-1.199999973E-1,-1.630000025E-1,-1.243000031E0
8.571730964E0,-1.199999973E-1,-1.630000025E-1,-1.243000031E0
8.576667989E0,-1.199999973E-1,-1.630000025E-1,-1.243000031E0
8.581605535E0,-1.131000042E0,-3.950000107E-1,-6.940000057E-1
8.586543440E0,-1.131000042E0,-3.950000107E-1,-6.940000057E-1
8.591481345E0,-1.131000042E0,-3.950000107E-1,-6.940000057E-1
8.596418858E0,-1.690999985E0,-8.610000014E-1,-4.880000055E-1
8.601355859E0,-1.690999985E0,-8.610000014E-1,-4.880000055E-1
8.606292860E0,-1.690999985E0,-8.610000014E-1,-4.880000055E-1
8.611229801E0,-7.689999938E-1,-3.079999983E-1,-9.900000095E-1
8.616166536E0,-7.689999938E-1,-3.079999983E-1,-9.900000095E-1
8.621103271E0,-7.689999938E-1,-3.079999983E-1,-9.900000095E-1
8.626040006E0,-7.689999938E-1,-3.079999983E-1,-9.900000095E-1
8.630976662E0,-2.489999980E-1,1.141999960E0,-2.009999990E0
8.635913323E0,-2.489999980E-1,1.141999960E0,-2.009999990E0
8.640849984E0,-2.489999980E-1,1.141999960E0,-2.009999990E0
8.645786331E0,4.839999974E-1,1.246999979E0,-2.411000013E0
8.650722656E0,4.839999974E-1,1.246999979E0,-2.411000013E0
8.655658981E0,4.839999974E-1,1.246999979E0,-2.411000013E0
8.660595064E0,5.080000162E-1,7.609999776E-1,-1.827000022E0
8.665531029E0,5.080000162E-1,7.609999776E-1,-1.827000022E0
8.670466994E0,5.080000162E-1,7.609999776E-1,-1.827000022E0
8.675403058E0,5.600000024E-1,7.100000232E-2,-6.949999928E-1
8.680339233E0,5.600000024E-1,7.100000232E-2,-6.949999928E-1
8.685275408E0,5.600000024E-1,7.100000232E-2,-6.949999928E-1
8.690211761E0,3.339999914E-1,1.539999992E-1,9.799999744E-2
8.695148676E0,3.339999914E-1,1.539999992E-1,9.799999744E-2
8.700085591E0,3.339999914E-1,1.539999992E-1,9.799999744E-2
8.705022506E0,3.339999914E-1,1.539999992E-1,9.799999744E-2
8.709959817E0,-1.300000027E-2,3.770000041E-1,-3.700000048E-2
8.714897098E0,-1.300000027E-2,3.770000041E-1,-3.700000048E-2
8.719834379E0,-1.300000027E-2,3.770000041E-1,-3.700000048E-2
8.724770913E0,-4.699999839E-2,5.700000003E-2,5.900000036E-2
8.729707288E0,-4.699999839E-2,5.700000003E-2,5.900000036E-2
8.734643663E0,-4.699999839E-2,5.700000003E-2,5.900000036E-2
8.739579960E0,-4.920000136E-1,5.600000173E-2,2.400000021E-2
8.744516215E0,-4.920000136E-1,5.600000173E-2,2.400000021E-2
8.749452470E0,-4.920000136E-1,5.600000173E-2,2.400000021E-2
8.754388702E0,-6.349999905E-1,8.900000155E-2,-4.359999895E-1
8.759324933E0,-6.349999905E-1,8.900000155E-2,-4.359999895E-1
8.764261164E0,-6.349999905E-1,8.900000155E-2,-4.359999895E-1
8.769197494E0,-7.870000005E-1,-6.199999899E-2,-4.600000083E-1
8.774134149E0,-7.870000005E-1,-6.199999899E-2,-4.600000083E-1
8.779070804E0,-7.870000005E-1,-6.199999899E-2,-4.600000083E-1
8.784007459E0,-7.870000005E-1,-6.199999899E-2,-4.600000083E-1
8.788942986E0,-2.840000093E-1,6.499999762E-2,3.580000103E-1
8.793878547E0,-2.840000093E-1,6.499999762E-2,3.580000103E-1
8.798814108E0,-2.840000093E-1,6.499999762E-2,3.580000103E-1
8.803750875E0,2.419999987E-1,2.500000037E-2,9.319999814E-1
8.808687886E0,2.419999987E-1,2.500000037E-2,9.319999814E-1
8.813624897E0,2.419999987E-1,2.500000037E-2,9.319999814E-1
8.818560931E0,1.729999930E-1,-2.000000095E-3,1.490000010E0
8.823496326E0,1.729999930E-1,-2.000000095E-3,1.490000010E0
8.828431721E0,1.729999930E-1,-2.000000095E-3,1.490000010E0
8.833367040E0,3.519999981E-1,-2.290000021E-1,1.758000016E0
8.838302261E0,3.519999981E-1,-2.290000021E-1,1.758000016E0
8.843237482E0,3.519999981E-1,-2.290000021E-1,1.758000016E0
8.848172768E0,3.799999952E-1,-2.520000041E-1,2.043999910E0
8.853108129E0,3.799999952E-1,-2.520000041E-1,2.043999910E0
8.858043490E0,3.799999952E-1,-2.520000041E-1,2.043999910E0
8.862978848E0,3.799999952E-1,-2.520000041E-1,2.043999910E0
8.867914256E0,5.299999937E-2,-2.080000043E-1,2.198999882E0
8.872849637E0,5.299999937E-2,-2.080000043E-1,2.198999882E0
8.877785018E0,5.299999937E-2,-2.080000043E-1,2.198999882E0
8.882720983E0,3.099999949E-2,-2.400000021E-2,1.962000012E0
8.887657058E0,3.099999949E-2,-2.400000021E-2,1.962000012E0
8.892593133E0,3.099999949E-2,-2.400000021E-2,1.962000012E0
8.897528754E0,6.400000304E-2,-3.299999982E-2,1.746999979E0
8.902464119E0,6.400000304E-2,-3.299999982E-2,1.746999979E0
8.907399484E0,6.400000304E-2,-3.299999982E-2,1.746999979E0
8.912335294E0,1.369999945E-1,1.499999966E-2,1.753999949E0
8.917271659E0,1.369999945E-1,1.499999966E-2,1.753999949E0
8.922208024E0,1.369999945E-1,1.499999966E-2,1.753999949E0
8.927144414E0,-9.499999881E-2,1.700000092E-2,1.606999993E0
8.932080829E0,-9.499999881E-2,1.700000092E-2,1.606999993E0
8.937017244E0,-9.499999881E-2,1.700000092E-2,1.606999993E0
8.941953659E0,-9.499999881E-2,1.700000092E-2,1.606999993E0
8.946890210E0,-1.270000041E-1,-1.059999987E-1,1.179000020E0
8.951826745E0,-1.270000041E-1,-1.059999987E-1,1.179000020E0
8.956763280E0,-1.270000041E-1,-1.059999987E-1,1.179000020E0
8.961698478E0,-7.800000161E-2,-2.560000122E-1,1.199000001E0
8.966633393E0,-7.800000161E-2,-2.560000122E-1,1.199000001E0
8.971568308E0,-7.800000161E-2,-2.560000122E-1,1.199000001E0
8.976503960E0,1.239999980E-1,-4.480000138E-1,1.148000002E0
8.981440035E0,1.239999980E-1,-4.480000138E-1,1.148000002E0
8.986376110E0,1.239999980E-1,-4.480000138E-1,1.148000002E0
8.991313009E0,-2.520000041E-1,-5.059999824E-1,8.280000091E-1
8.996251054E0,-2.520000041E-1,-5.059999824E-1,8.280000091E-1
9.001189099E0,-2.520000041E-1,-5.059999824E-1,8.280000091E-1
9.006126831E0,-3.269999921E-1,-6.129999757E-1,1.060999990E0
9.011063476E0,-3.269999921E-1,-6.129999757E-1,1.060999990E0
9.016000121E0,-3.269999921E-1,-6.129999757E-1,1.060999990E0
9.020936766E0,-3.269999921E-1,-6.129999757E-1,1.060999990E0
9.025873447E0,-6.449999809E-1,-3.470000029E-1,1.414000034E0
9.030810102E0,-6.449999809E-1,-3.470000029E-1,1.414000034E0
9.035746757E0,-6.449999809E-1,-3.470000029E-1,1.414000034E0
9.040682395E0,-2.890000045E-1,1.799999923E-2,1.299999952E0
9.045617860E0,-2.890000045E-1,1.799999923E-2,1.299999952E0
9.050553325E0,-2.890000045E-1,1.799999923E-2,1.299999952E0
9.055489482E0,-5.410000086E-1,-7.000000030E-2,4.819999933E-1
9.060426037E0,-5.410000086E-1,-7.000000030E-2,4.819999933E-1
9.065362592E0,-5.410000086E-1,-7.000000030E-2,4.819999933E-1
9.070299241E0,-7.699999958E-2,4.769999981E-1,-9.799999744E-2
9.075236042E0,-7.699999958E-2,4.769999981E-1,-9.799999744E-2
9.080172843E0,-7.699999958E-2,4.769999981E-1,-9.799999744E-2
9.085109641E0,2.759999931E-1,8.389999866E-1,-4.189999998E-1
9.090046562E0,2.759999931E-1,8.389999866E-1,-4.189999998E-1
9.094983483E0,2.759999931E-1,8.389999866E-1,-4.189999998E-1
9.099920401E0,2.759999931E-1,8.389999866E-1,-4.189999998E-1
9.104857803E0,2.649999857E-1,8.349999785E-1,-1.472000003E0
9.109795204E0,2.649999857E-1,8.349999785E-1,-1.472000003E0
9.114732605E0,2.649999857E-1,8.349999785E-1,-1.472000003E0
9.119669542E0,5.740000010E-1,5.479999781E-1,-2.368000031E0
9.124606373E0,5.740000010E-1,5.479999781E-1,-2.368000031E0
9.129543204E0,5.740000010E-1,5.479999781E-1,-2.368000031E0
9.134479487E0,2.500000037E-2,-1.110000014E-1,-2.642999887E0
9.139415382E0,2.500000037E-2,-1.110000014E-1,-2.642999887E0
9.144351277E0,2.500000037E-2,-1.110000014E-1,-2.642999887E0
9.149287367E0,3.099999949E-2,2.300000004E-2,-2.104000092E0
9.154223902E0,3.099999949E-2,2.300000004E-2,-2.104000092E0
9.159160437E0,3.099999949E-2,2.300000004E-2,-2.104000092E0
9.164097051E0,-3.860000074E-1,5.509999990E-1,-2.019999981E0
9.169033876E0,-3.860000074E-1,5.509999990E-1,-2.019999981E0
9.173970701E0,-3.860000074E-1,5.509999990E-1,-2.019999981E0
9.178907526E0,-3.860000074E-1,5.509999990E-1,-2.019999981E0
9.183844812E0,3.860000074E-1,-1.509999931E-1,-2.061000109E0
9.188782093E0,3.860000074E-1,-1.509999931E-1,-2.061000109E0
9.193719374E0,3.860000074E-1,-1.509999931E-1,-2.061000109E0
9.198655681E0,6.499999762E-1,-6.959999800E-1,-1.914000034E0
9.203591746E0,6.499999762E-1,-6.959999800E-1,-1.914000034E0
9.208527811E0,6.499999762E-1,-6.959999800E-1,-1.914000034E0
9.213463788E0,6.330000162E-1,-7.910000086E-1,-2.227999926E0
9.218399779E0,6.330000162E-1,-7.910000086E-1,-2.227999926E0
9.223335770E0,6.330000162E-1,-7.910000086E-1,-2.227999926E0
9.228272069E0,-2.060000002E-1,6.899999976E-1,-2.448999882E0
9.233208770E0,-2.060000002E-1,6.899999976E-1,-2.448999882E0
9.238145471E0,-2.060000002E-1,6.899999976E-1,-2.448999882E0
9.243081891E0,-5.040000081E-1,6.000000238E-1,-1.449000001E0
9.248017306E0,-5.040000081E-1,6.000000238E-1,-1.449000001E0
9.252952721E0,-5.040000081E-1,6.000000238E-1,-1.449000001E0
9.257888136E0,-5.040000081E-1,6.000000238E-1,-1.449000001E0
9.262824534E0,3.549999893E-1,-2.140000015E-1,-1.031000018E0
9.267760875E0,3.549999893E-1,-2.140000015E-1,-1.031000018E0
9.272697216E0,3.549999893E-1,-2.140000015E-1,-1.031000018E0
9.277634243E0,8.320000172E-1,6.599999964E-2,-1.422000051E0
9.282571448E0,8.320000172E-1,6.599999964E-2,-1.422000051E0
9.287508653E0,8.320000172E-1,6.599999964E-2,-1.422000051E0
9.292444678E0,7.210000157E-1,6.069999933E-1,-1.501000047E0
9.297379979E0,7.210000157E-1,6.069999933E-1,-1.501000047E0
9.302315280E0,7.210000157E-1,6.069999933E-1,-1.501000047E0
9.307250644E0,9.039999843E-1,6.150000095E-1,-7.829999924E-1
9.312186025E0,9.039999843E-1,6.150000095E-1,-7.829999924E-1
9.317121406E0,9.039999843E-1,6.150000095E-1,-7.829999924E-1
9.322056842E0,9.639999866E-1,5.019999743E-1,-3.700000048E-1
9.326992393E0,9.639999866E-1,5.019999743E-1,-3.700000048E-1
9.331927944E0,9.639999866E-1,5.019999743E-1,-3.700000048E-1
9.336863492E0,9.639999866E-1,5.019999743E-1,-3.700000048E-1
9.341800197E0,8.289999962E-1,2.290000021E-1,4.469999969E-1
9.346736922E0,8.289999962E-1,2.290000021E-1,4.469999969E-1
9.351673647E0,8.289999962E-1,2.290000021E-1,4.469999969E-1
9.356610204E0,4.460000098E-1,2.800000086E-2,9.300000072E-1
9.361546675E0,4.460000098E-1,2.800000086E-2,9.300000072E-1
9.366483146E0,4.460000098E-1,2.800000086E-2,9.300000072E-1
9.371419638E0,1.270000041E-1,-9.700000286E-2,1.669999957E0
9.376356149E0,1.270000041E-1,-9.700000286E-2,1.669999957E0
9.381292660E0,1.270000041E-1,-9.700000286E-2,1.669999957E0
9.386229334E0,1.309999973E-1,-2.349999994E-1,1.450000048E0
9.391166279E0,1.309999973E-1,-2.349999994E-1,1.450000048E0
9.396103224E0,1.309999973E-1,-2.349999994E-1,1.450000048E0
9.401040060E0,-2.549999952E-1,-3.810000122E-1,1.197000027E0
9.405976385E0,-2.549999952E-1,-3.810000122E-1,1.197000027E0
9.410912710E0,-2.549999952E-1,-3.810000122E-1,1.197000027E0
9.415849035E0,-2.549999952E-1,-3.810000122E-1,1.197000027E0
9.420784107E0,-6.629999876E-1,-2.070000023E-1,1.776000023E0
9.425719212E0,-6.629999876E-1,-2.070000023E-1,1.776000023E0
9.430654317E0,-6.629999876E-1,-2.070000023E-1,1.776000023E0
9.435588587E0,-4.860000014E-1,-1.539999992E-1,1.855000019E0
9.440522632E0,-4.860000014E-1,-1.539999992E-1,1.855000019E0
9.445456677E0,-4.860000014E-1,-1.539999992E-1,1.855000019E0
9.450391085E0,-6.420000196E-1,-9.000000358E-2,1.756000042E0
9.455325720E0,-6.420000196E-1,-9.000000358E-2,1.756000042E0
9.460260355E0,-6.420000196E-1,-9.000000358E-2,1.756000042E0
9.465194900E0,-5.249999762E-1,1.040000021E-1,1.980000019E0
9.470129325E0,-5.249999762E-1,1.040000021E-1,1.980000019E0
9.475063750E0,-5.249999762E-1,1.040000021E-1,1.980000019E0
9.479998225E0,-2.829999924E-1,2.010000050E-1,1.679000020E0
9.484932740E0,-2.829999924E-1,2.010000050E-1,1.679000020E0
9.489867255E0,-2.829999924E-1,2.010000050E-1,1.679000020E0
9.494801770E0,-2.829999924E-1,2.010000050E-1,1.679000020E0
9.499736461E0,-2.479999959E-1,1.010000035E-1,1.508999944E0
9.504671200E0,-2.479999959E-1,1.010000035E-1,1.508999944E0
9.509605911E0,-2.479999959E-1,1.010000035E-1,1.508999944E0
9.514540002E0,1.180000007E-1,1.589999944E-1,1.034000039E0
9.519473953E0,1.180000007E-1,1.589999944E-1,1.034000039E0
9.524407904E0,1.180000007E-1,1.589999944E-1,1.034000039E0
9.529342164E0,3.470000029E-1,-1.490000039E-1,1.133999944E0
9.534276655E0,3.470000029E-1,-1.490000039E-1,1.133999944E0
9.539211146E0,3.470000029E-1,-1.490000039E-1,1.133999944E0
9.544145497E0,-1.350000054E-1,-3.050000072E-1,1.279000044E0
9.549079662E0,-1.350000054E-1,-3.050000072E-1,1.279000044E0
9.554013827E0,-1.350000054E-1,-3.050000072E-1,1.279000044E0
9.558948052E0,-3.529999852E-1,-4.850000143E-1,1.460000038E0
9.563882353E0,-3.529999852E-1,-4.850000143E-1,1.460000038E0
9.568816654E0,-3.529999852E-1,-4.850000143E-1,1.460000038E0
9.573750952E0,-3.529999852E-1,-4.850000143E-1,1.460000038E0
9.578684827E0,-5.590000153E-1,-2.560000122E-1,1.195000052E0
9.583618702E0,-5.590000153E-1,-2.560000122E-1,1.195000052E0
9.588552577E0,-5.590000153E-1,-2.560000122E-1,1.195000052E0
9.593486786E0,-6.909999847E-1,-1.689999998E-1,5.090000033E-1
9.598421087E0,-6.909999847E-1,-1.689999998E-1,5.090000033E-1
9.603355388E0,-6.909999847E-1,-1.689999998E-1,5.090000033E-1
9.608289465E0,-8.320000172E-1,7.500000298E-2,-1.000000015E-1
9.613223410E0,-8.320000172E-1,7.500000298E-2,-1.000000015E-1
9.618157355E0,-8.320000172E-1,7.500000298E-2,-1.000000015E-1
9.623091479E0,-4.239999950E-1,6.309999824E-1,-5.070000291E-1
9.628025824E0,-4.239999950E-1,6.309999824E-1,-5.070000291E-1
9.632960169E0,-4.239999950E-1,6.309999824E-1,-5.070000291E-1
9.637894704E0,-6.370000243E-1,8.560000062E-1,-8.059999943E-1
9.642829985E0,-6.370000243E-1,8.560000062E-1,-8.059999943E-1
9.647765266E0,-6.370000243E-1,8.560000062E-1,-8.059999943E-1
9.652700544E0,-6.370000243E-1,8.560000062E-1,-8.059999943E-1
9.657634409E0,-5.000000075E-2,7.129999995E-1,-1.391999960E0
9.662568334E0,-5.000000075E-2,7.129999995E-1,-1.391999960E0
9.667502259E0,-5.000000075E-2,7.129999995E-1,-1.391999960E0
9.672437482E0,-2.029999942E-1,3.440000117E-1,-1.812999964E0
9.677372977E0,-2.029999942E-1,3.440000117E-1,-1.812999964E0
9.682308472E0,-2.029999942E-1,3.440000117E-1,-1.812999964E0
9.687242714E0,-6.269999743E-1,-7.730000019E-1,-1.690999985E0
9.692176185E0,-6.269999743E-1,-7.730000019E-1,-1.690999985E0
9.697109656E0,-6.269999743E-1,-7.730000019E-1,-1.690999985E0
9.702043590E0,-5.379999876E-1,-8.249999881E-1,-1.819000006E0
9.706978175E0,-5.379999876E-1,-8.249999881E-1,-1.819000006E0
9.711912760E0,-5.379999876E-1,-8.249999881E-1,-1.819000006E0
9.716847523E0,-1.179000020E0,-6.259999871E-1,-1.988999963E0
9.721782998E0,-1.179000020E0,-6.259999871E-1,-1.988999963E0
9.726718473E0,-1.179000020E0,-6.259999871E-1,-1.988999963E0
9.731653948E0,-1.179000020E0,-6.259999871E-1,-1.988999963E0
9.736590491E0,-1.254999995E0,-7.129999995E-1,-1.317999959E0
9.741527022E0,-1.254999995E0,-7.129999995E-1,-1.317999959E0
9.746463553E0,-1.254999995E0,-7.129999995E-1,-1.317999959E0
9.751400403E0,9.099999815E-2,-5.600000173E-2,-1.935999990E0
9.756337324E0,9.099999815E-2,-5.600000173E-2,-1.935999990E0
9.761274245E0,9.099999815E-2,-5.600000173E-2,-1.935999990E0
9.766211157E0,4.390000105E-1,4.799999893E-1,-2.401000023E0
9.771148078E0,4.390000105E-1,4.799999893E-1,-2.401000023E0
9.776084999E0,4.390000105E-1,4.799999893E-1,-2.401000023E0
9.781022003E0,2.169999927E-1,1.123999953E0,-2.111999989E0
9.785959018E0,2.169999927E-1,1.123999953E0,-2.111999989E0
9.790896033E0,2.169999927E-1,1.123999953E0,-2.111999989E0
9.795832776E0,7.549999952E-1,5.580000281E-1,-9.330000281E-1
9.800768767E0,7.549999952E-1,5.580000281E-1,-9.330000281E-1
9.805704758E0,7.549999952E-1,5.580000281E-1,-9.330000281E-1
9.810640746E0,7.549999952E-1,5.580000281E-1,-9.330000281E-1
